SN,Trial,Block,vstmLoad,Targ,Flnk,TargPos,FlnkPos,Congruency,Resp,RT,vstmCond,vstmResp,vstmRT
1,1,1,1,2,1,3,2,0,2,0.6373,1,1,0.6211
1,2,1,1,1,2,6,2,0,1,0.6963,2,2,0.6161
1,3,1,1,1,1,5,1,1,1,0.5516,1,1,0.5994
1,4,1,1,2,1,2,2,0,2,0.6224,2,2,0.7982
1,5,1,1,2,1,1,1,0,2,0.7491,2,2,0.6049
1,6,1,1,2,1,5,2,0,1,0.7324,2,7,7
1,7,1,1,1,1,6,1,1,1,0.9669,2,2,0.7586
1,8,1,1,2,2,6,2,1,2,0.681,2,2,0.6647
1,9,1,1,2,1,5,1,0,2,0.6929,1,1,0.7407
1,10,1,1,1,2,1,1,0,1,1.1985,1,1,1.8863
1,11,1,1,1,1,2,1,1,1,0.6268,2,2,0.4826
1,12,1,1,2,1,2,1,0,2,0.6873,2,2,0.863
1,13,1,1,2,1,6,1,0,2,0.8192,1,1,1.251
1,14,1,1,1,2,6,1,0,1,0.9469,1,1,0.5466
1,15,1,1,2,2,2,1,1,7,7,2,7,7
1,16,1,1,1,2,4,2,0,1,0.9884,1,1,0.9722
1,17,1,1,2,2,1,2,1,2,0.7585,2,2,0.8063
1,18,1,1,2,1,6,2,0,1,0.8853,1,1,0.6553
1,19,1,1,2,2,6,1,1,2,0.7475,1,1,1.0513
1,20,1,1,1,1,4,1,1,2,0.7552,2,2,1.0386
1,21,1,1,1,2,1,2,0,1,0.7425,2,2,1.1743
1,22,1,1,2,1,3,1,0,2,0.8246,2,2,1.9604
1,23,1,1,1,1,3,2,1,1,0.8223,2,2,0.87
1,24,1,1,2,2,2,2,1,2,0.7387,2,2,0.5945
1,25,1,1,1,2,3,1,0,1,1.0942,2,2,0.63
1,26,1,1,1,2,2,1,0,1,1.0657,1,1,1.1774
1,27,1,1,2,2,4,1,1,2,0.9962,2,2,0.788
1,28,1,1,1,2,5,1,0,1,1.3149,2,2,0.5947
1,29,1,1,2,1,1,2,0,2,1.1466,1,7,7
1,30,1,1,2,1,4,1,0,2,0.8255,1,1,1.2572
1,31,1,1,1,2,3,2,0,1,0.9178,1,1,1.2856
1,32,1,1,2,2,5,2,1,2,0.6902,2,2,0.5459
1,33,1,1,2,2,1,1,1,2,0.8198,2,2,1.7636
1,34,1,1,2,2,3,2,1,2,0.9418,1,1,1.1815
1,35,1,1,1,1,6,2,1,1,0.837,1,1,0.9487
1,36,1,1,2,2,4,2,1,2,0.6945,1,1,0.7423
1,37,1,1,2,1,4,2,0,2,0.8162,1,1,0.7359
1,38,1,1,1,2,4,1,0,1,1.0018,1,1,0.8575
1,39,1,1,1,1,3,1,1,1,0.9417,2,2,0.7975
1,40,1,1,1,2,5,2,0,7,7,1,1,1.7165
1,41,1,1,1,1,4,2,1,1,0.7666,1,1,1.5824
1,42,1,1,1,1,5,2,1,1,0.7451,1,1,0.8569
1,43,1,1,1,1,1,1,1,1,0.6968,2,2,0.6166
1,44,1,1,1,2,2,2,0,1,0.6918,2,2,0.6117
1,45,1,1,1,1,1,2,1,1,0.6869,1,1,0.7346
1,46,1,1,1,1,2,2,1,1,0.6164,1,1,0.7283
1,47,1,1,2,2,3,1,1,2,0.8661,1,1,0.8498
1,48,1,1,2,2,5,1,1,2,0.806,2,2,0.7898
1,49,2,2,2,1,3,2,0,2,0.9039,1,1,1.3996
1,50,2,2,2,1,2,1,0,2,0.8668,1,1,0.7865
1,51,2,2,2,2,5,1,1,2,0.825,2,2,1.2569
1,52,2,2,1,2,5,2,0,1,0.8129,2,1,1.2448
1,53,2,2,1,2,2,1,0,1,0.97,1,1,1.0818
1,54,2,2,1,1,3,1,1,1,0.8026,2,2,1.0424
1,55,2,2,1,2,4,2,0,1,0.8273,1,1,0.6831
1,56,2,2,1,2,1,1,0,1,0.7517,1,1,0.8635
1,57,2,2,2,1,5,2,0,2,0.8196,1,1,0.8674
1,58,2,2,2,1,4,1,0,2,1.0156,2,2,2.9194
1,59,2,2,1,2,4,1,0,1,0.7525,1,1,0.6723
1,60,2,2,1,2,3,2,0,1,0.6769,1,1,0.6607
1,61,2,2,1,1,2,1,1,1,0.7294,1,2,1.1611
1,62,2,2,2,1,4,2,0,2,1.1034,2,1,0.7671
1,63,2,2,2,2,3,1,1,2,0.8417,1,1,0.7615
1,64,2,2,2,1,5,1,0,2,0.7595,2,1,0.7433
1,65,2,2,1,1,5,1,1,1,0.7892,2,2,1.0929
1,66,2,2,2,2,1,2,1,2,0.7498,2,2,1.2456
1,67,2,2,2,1,6,2,0,2,0.9532,1,1,1.449
1,68,2,2,2,2,2,1,1,2,0.9971,1,1,0.7889
1,69,2,2,2,1,6,1,0,2,0.7399,1,1,0.5957
1,70,2,2,2,1,1,2,0,2,0.9556,2,2,2.4113
1,71,2,2,1,1,5,2,1,1,1.5066,2,1,1.4264
1,72,2,2,1,1,6,1,1,1,0.6619,2,1,0.7096
1,73,2,2,1,2,6,2,0,1,0.6627,2,1,0.9665
1,74,2,2,1,2,5,1,0,1,0.9168,1,1,0.7726
1,75,2,2,1,1,6,2,1,1,0.6949,2,1,0.5507
1,76,2,2,2,1,2,2,0,2,0.7495,2,2,1.1812
1,77,2,2,2,1,3,1,0,2,0.9882,1,1,0.908
1,78,2,2,1,1,1,2,1,1,1.0613,2,1,0.8531
1,79,2,2,2,2,5,2,1,2,0.7813,1,1,0.765
1,80,2,2,1,1,2,2,1,1,0.7513,2,1,0.8631
1,81,2,2,1,1,3,2,1,1,0.6633,2,1,0.7751
1,82,2,2,1,1,1,1,1,1,0.8614,2,1,1.1012
1,83,2,2,1,1,4,2,1,1,0.666,1,1,0.5858
1,84,2,2,2,2,6,1,1,2,0.8126,2,2,0.8603
1,85,2,2,2,2,4,2,1,2,0.7408,2,1,0.9165
1,86,2,2,2,2,1,1,1,2,1.3957,1,1,1.0595
1,87,2,2,2,2,6,2,1,2,0.7399,1,1,1.1717
1,88,2,2,1,1,4,1,1,1,1.0779,1,1,1.1897
1,89,2,2,2,1,1,1,0,2,0.8046,2,1,0.9165
1,90,2,2,2,2,3,2,1,2,0.7858,2,1,0.9616
1,91,2,2,2,2,4,1,1,2,0.7198,1,1,0.7037
1,92,2,2,1,2,2,2,0,1,1.1327,1,1,0.9245
1,93,2,2,1,2,1,2,0,1,0.9028,1,2,1.2706
1,94,2,2,2,2,2,2,1,2,0.9437,2,2,1.0554
1,95,2,2,1,2,6,1,0,1,1.172,2,2,0.7078
1,96,2,2,1,2,3,1,0,1,1.1369,1,1,1.6327
1,97,3,2,2,2,2,1,1,2,0.6474,1,1,0.8872
1,98,3,2,2,1,2,2,0,2,0.8838,1,1,0.6756
1,99,3,2,2,2,1,2,1,2,0.6802,1,1,0.856
1,100,3,2,1,2,4,1,0,1,0.9454,1,1,1.0571
1,101,3,2,2,1,3,1,0,2,1.0053,1,2,1.0531
1,102,3,2,2,2,6,2,1,2,0.6908,2,1,0.8026
1,103,3,2,1,1,3,2,1,1,1.3016,2,2,0.7734
1,104,3,2,2,1,6,1,0,2,0.6957,2,2,1.0635
1,105,3,2,1,2,6,2,0,1,0.6916,2,1,0.6114
1,106,3,2,1,1,4,2,1,1,0.7226,1,1,0.9624
1,107,3,2,1,1,6,2,1,1,0.7252,2,1,1.7969
1,108,3,2,2,1,6,2,0,2,0.661,2,2,0.9008
1,109,3,2,2,1,3,2,0,2,1.1181,1,1,0.7819
1,110,3,2,1,1,3,1,1,1,0.7381,2,2,0.8498
1,111,3,2,2,2,1,1,1,2,0.8818,1,1,1.6975
1,112,3,2,1,2,4,2,0,1,0.6903,1,1,0.6741
1,113,3,2,2,1,5,1,0,2,0.6905,1,1,1.3783
1,114,3,2,1,2,1,2,0,1,0.741,1,1,0.9168
1,115,3,2,1,2,3,2,0,1,0.7384,1,1,0.9781
1,116,3,2,1,2,2,1,0,1,0.8976,1,1,1.0093
1,117,3,2,1,2,5,1,0,1,0.9405,1,2,1.5003
1,118,3,2,2,1,2,1,0,2,0.627,2,1,0.6748
1,119,3,2,1,2,3,1,0,1,0.7206,1,1,0.8324
1,120,3,2,1,1,5,2,1,1,0.5443,2,2,0.7201
1,121,3,2,2,2,4,1,1,2,0.5901,2,2,0.9579
1,122,3,2,2,1,1,2,0,2,0.7207,2,2,0.8324
1,123,3,2,1,2,2,2,0,1,0.5561,1,1,0.7319
1,124,3,2,2,1,1,1,0,1,0.6255,1,1,1.0384
1,125,3,2,2,2,2,2,1,2,0.6143,2,1,1.1101
1,126,3,2,2,1,5,2,0,2,1.3672,1,1,0.8389
1,127,3,2,1,1,1,2,1,1,0.7951,1,1,0.9709
1,128,3,2,1,2,1,1,0,1,0.6174,1,1,0.6012
1,129,3,2,2,1,4,2,0,2,0.7404,2,1,0.8522
1,130,3,2,1,1,2,2,1,1,0.6693,2,2,0.9091
1,131,3,2,1,1,1,1,1,1,1.2544,2,2,2.3902
1,132,3,2,1,1,4,1,1,1,0.805,1,2,1.8768
1,133,3,2,1,1,6,1,1,1,0.7291,2,2,1.6729
1,134,3,2,2,2,3,1,1,2,0.6892,2,2,1.313
1,135,3,2,1,2,6,1,0,1,1.4502,2,7,7
1,136,3,2,2,2,5,1,1,2,0.5766,1,1,0.8804
1,137,3,2,2,2,5,2,1,2,0.8247,2,1,0.7445
1,138,3,2,2,2,6,1,1,2,1.4303,2,2,0.9661
1,139,3,2,1,2,5,2,0,1,0.5487,2,2,0.6604
1,140,3,2,2,2,3,2,1,2,0.6768,2,2,0.9166
1,141,3,2,1,1,2,1,1,1,0.8831,1,1,0.7389
1,142,3,2,1,1,5,1,1,1,0.6207,2,2,1.2445
1,143,3,2,2,1,4,1,0,2,1.0044,2,2,0.6682
1,144,3,2,2,2,4,2,1,2,0.6846,1,1,0.7964
1,145,4,1,2,1,5,1,0,2,0.7221,1,1,0.6418
1,146,4,1,1,1,3,1,1,1,0.7576,2,2,0.6133
1,147,4,1,1,1,3,2,1,1,0.4966,2,2,2.0163
1,148,4,1,2,1,5,2,0,2,0.7437,2,2,0.5354
1,149,4,1,1,1,4,2,1,1,0.6931,2,2,0.4848
1,150,4,1,1,1,6,1,1,1,0.6255,1,1,0.6093
1,151,4,1,2,1,3,1,0,2,0.6845,1,1,1.1163
1,152,4,1,2,1,2,1,0,2,0.6856,1,1,0.8614
1,153,4,1,1,2,6,2,0,1,0.666,1,1,0.7779
1,154,4,1,1,1,1,1,1,1,0.6766,1,1,0.5323
1,155,4,1,1,2,2,1,0,1,0.9982,2,2,0.534
1,156,4,1,2,1,4,1,0,2,0.7439,1,2,0.5996
1,157,4,1,2,1,2,2,0,2,0.9433,2,2,0.7991
1,158,4,1,2,2,3,2,1,2,0.7501,2,2,0.6059
1,159,4,1,2,1,6,1,0,2,0.6929,2,2,0.6767
1,160,4,1,2,1,1,2,0,2,0.8851,2,2,0.7409
1,161,4,1,1,2,4,1,0,1,0.8787,2,2,0.7345
1,162,4,1,2,2,5,2,1,2,0.8083,1,1,1.1121
1,163,4,1,2,2,3,1,1,2,1.0654,2,2,0.7292
1,164,4,1,1,2,2,2,0,1,0.995,2,2,1.2988
1,165,4,1,1,1,1,2,1,1,0.8365,2,2,0.6283
1,166,4,1,1,2,1,1,0,1,1,2,2,1.1118
1,167,4,1,1,2,4,2,0,1,0.9371,1,2,1.4329
1,168,4,1,1,1,2,2,1,1,0.6043,2,2,0.6521
1,169,4,1,2,1,3,2,0,2,0.692,2,2,0.8678
1,170,4,1,1,2,1,2,0,1,0.696,1,1,0.7437
1,171,4,1,2,2,4,1,1,2,0.8816,1,1,0.9933
1,172,4,1,1,1,2,1,1,1,0.6803,2,2,0.7921
1,173,4,1,2,2,6,1,1,2,0.8071,1,1,1.1109
1,174,4,1,1,1,5,2,1,1,0.7964,2,2,0.5882
1,175,4,1,2,1,1,1,0,2,1.1232,1,1,0.659
1,176,4,1,2,2,1,2,1,2,1.2161,2,2,1.4559
1,177,4,1,1,2,6,1,0,1,0.876,1,1,0.6038
1,178,4,1,1,2,3,1,0,1,0.9873,1,1,0.523
1,179,4,1,2,2,1,1,1,2,0.8086,1,1,1.3044
1,180,4,1,1,1,5,1,1,1,0.6332,2,2,0.681
1,181,4,1,1,2,5,2,0,1,0.6739,1,1,0.5297
1,182,4,1,1,2,5,1,0,1,0.6873,1,1,0.543
1,183,4,1,2,2,4,2,1,2,0.7529,2,2,1.1847
1,184,4,1,1,1,6,2,1,1,0.6312,1,1,0.743
1,185,4,1,2,2,6,2,1,2,0.741,1,1,0.8528
1,186,4,1,1,2,3,2,0,1,0.6456,1,1,0.6934
1,187,4,1,1,1,4,1,1,1,0.6628,2,2,0.5185
1,188,4,1,2,2,5,1,1,2,0.6122,1,1,0.5319
1,189,4,1,2,1,4,2,0,2,0.9339,1,2,1.1096
1,190,4,1,2,1,6,2,0,2,0.9356,2,2,0.6634
1,191,4,1,2,2,2,1,1,2,0.8718,2,1,0.6636
1,192,4,1,2,2,2,2,1,2,0.7278,1,1,1.6715
2,1,1,2,1,2,5,1,0,1,0.6331,1,2,0.6809
2,2,1,2,1,1,2,2,1,1,0.4773,1,1,0.4611
2,3,1,2,1,2,2,2,0,2,0.3693,2,1,0.5291
2,4,1,2,2,1,3,2,0,1,0.4667,1,2,0.4683
2,5,1,2,2,2,3,2,1,2,0.6045,1,1,0.9083
2,6,1,2,2,2,5,1,1,1,0.6254,2,2,0.6543
2,7,1,2,2,1,3,1,0,2,0.6472,2,1,0.8229
2,8,1,2,1,2,4,2,0,1,0.6584,1,1,1.1542
2,9,1,2,2,1,2,1,0,1,0.4322,2,1,0.4691
2,10,1,2,1,1,1,1,1,1,0.4773,1,1,0.5891
2,11,1,2,1,2,6,2,0,2,0.4319,1,1,0.3408
2,12,1,2,1,2,6,1,0,1,0.4307,2,2,0.5424
2,13,1,2,2,1,2,2,0,1,0.4323,1,1,1.1732
2,14,1,2,1,2,1,1,0,1,0.4394,1,2,0.4872
2,15,1,2,2,2,2,1,1,2,0.6639,2,1,0.5837
2,16,1,2,1,1,5,1,1,1,0.8465,1,2,0.4462
2,17,1,2,2,1,4,2,0,2,0.9142,1,1,0.45
2,18,1,2,1,2,3,2,0,1,0.626,1,2,0.4818
2,19,1,2,1,2,4,1,0,1,0.5305,1,1,0.3863
2,20,1,2,2,1,4,1,0,1,0.4408,1,1,1.362
2,21,1,2,2,2,2,2,1,2,0.3759,1,1,0.4878
2,22,1,2,2,2,4,2,1,2,0.5004,2,1,0.9962
2,23,1,2,2,1,5,2,0,1,0.4109,2,2,0.5236
2,24,1,2,1,1,4,2,1,1,0.4252,2,1,2.009
2,25,1,2,2,1,1,1,0,2,1.0137,2,2,0.2935
2,26,1,2,2,1,5,1,0,1,0.5114,2,2,0.4659
2,27,1,2,2,2,4,1,1,2,0.344,1,1,0.5198
2,28,1,2,2,2,1,2,1,2,0.5493,1,1,0.5331
2,29,1,2,2,2,5,2,1,2,0.423,1,2,0.6628
2,30,1,2,2,2,6,2,1,2,0.343,2,1,0.5828
2,31,1,2,1,1,6,2,1,2,0.4733,1,2,0.5911
2,32,1,2,2,2,3,1,1,2,0.7259,2,2,1.0937
2,33,1,2,1,2,2,1,0,1,0.7388,2,1,0.7866
2,34,1,2,1,2,5,2,0,1,0.6691,2,2,0.5889
2,35,1,2,1,1,6,1,1,1,0.4317,2,1,0.6075
2,36,1,2,1,2,3,1,0,1,0.5385,1,2,0.4583
2,37,1,2,1,1,3,1,1,1,0.4025,2,1,0.6422
2,38,1,2,2,1,6,1,0,2,0.922,1,1,0.5858
2,39,1,2,1,1,4,1,1,1,0.5566,2,1,0.3483
2,40,1,2,1,1,1,2,1,1,0.4625,1,2,0.3182
2,41,1,2,2,2,6,1,1,2,1.1246,2,1,0.4044
2,42,1,2,1,1,5,2,1,1,0.6517,2,2,0.5714
2,43,1,2,2,1,1,2,0,2,0.6297,2,1,0.6135
2,44,1,2,1,1,3,2,1,1,0.5968,2,2,0.4526
2,45,1,2,2,1,6,2,0,1,0.4365,1,1,1.5497
2,46,1,2,1,1,2,1,1,1,0.5843,1,2,0.4401
2,47,1,2,1,2,1,2,0,1,0.5881,2,1,0.5719
2,48,1,2,2,2,1,1,1,2,0.6544,2,1,0.5742
2,49,2,1,2,1,4,2,0,1,0.7268,2,2,0.6616
2,50,2,1,1,1,1,2,1,1,0.6257,1,1,0.6735
2,51,2,1,1,2,5,1,0,1,0.6259,2,2,0.3537
2,52,2,1,1,2,3,2,0,1,0.5598,2,2,0.4156
2,53,2,1,2,2,3,2,1,2,0.6151,2,2,0.5989
2,54,2,1,1,2,2,2,0,1,0.4821,2,2,0.4659
2,55,2,1,2,2,4,2,1,2,0.5543,2,2,0.4741
2,56,2,1,1,1,1,1,1,1,0.5508,2,2,0.5346
2,57,2,1,2,1,3,2,0,2,0.6922,2,1,0.484
2,58,2,1,1,2,1,1,0,1,0.5327,1,1,0.7084
2,59,2,1,2,2,5,1,1,2,0.6255,1,2,0.4813
2,60,2,1,2,2,5,2,1,2,0.4543,1,1,0.63
2,61,2,1,2,2,4,1,1,2,0.6177,1,2,0.6655
2,62,2,1,2,1,5,1,0,1,0.9218,1,2,0.6565
2,63,2,1,2,2,1,2,1,2,0.5221,1,1,0.5058
2,64,2,1,1,1,6,2,1,2,0.2795,1,1,0.4053
2,65,2,1,2,1,1,1,0,2,0.9131,1,2,0.4488
2,66,2,1,2,1,6,2,0,1,1.1728,1,1,1.1725
2,67,2,1,1,1,5,1,1,1,1.0147,1,1,0.8705
2,68,2,1,2,1,2,1,0,1,0.9429,1,1,0.3981
2,69,2,1,2,2,6,2,1,2,0.638,1,1,0.5579
2,70,2,1,2,2,2,2,1,2,0.4882,2,2,0.4719
2,71,2,1,1,2,3,1,0,1,0.6126,2,2,0.5324
2,72,2,1,1,1,2,1,1,1,0.498,2,2,0.6738
2,73,2,1,1,1,5,2,1,1,0.5622,2,2,1.058
2,74,2,1,1,1,2,2,1,1,0.4941,2,2,0.6059
2,75,2,1,2,1,6,1,0,1,0.8209,2,1,0.4696
2,76,2,1,2,2,2,1,1,2,0.9662,1,1,0.502
2,77,2,1,2,1,3,1,0,1,0.8751,1,2,0.529
2,78,2,1,1,2,6,2,0,1,0.763,1,2,0.9388
2,79,2,1,2,2,1,1,1,2,0.7206,2,2,0.6404
2,80,2,1,1,2,4,1,0,1,0.5811,1,2,0.4369
2,81,2,1,1,2,5,2,0,1,0.5966,1,1,0.4524
2,82,2,1,1,2,2,1,0,1,0.6283,1,1,0.4841
2,83,2,1,2,1,4,1,0,2,1.2008,1,2,0.9286
2,84,2,1,1,2,4,2,0,1,0.5824,1,1,1.0782
2,85,2,1,1,1,3,1,1,1,0.5548,2,2,0.9866
2,86,2,1,2,2,3,1,1,2,0.842,2,2,0.5698
2,87,2,1,2,1,1,2,0,1,0.4361,1,1,0.4612
2,88,2,1,1,1,4,1,1,1,0.7534,2,2,0.8012
2,89,2,1,2,1,5,2,0,2,0.8802,1,2,0.544
2,90,2,1,1,2,6,1,0,1,0.4698,2,2,0.5176
2,91,2,1,2,1,2,2,0,2,0.8032,1,2,1.043
2,92,2,1,1,2,1,2,0,1,0.5909,2,7,7
2,93,2,1,1,1,3,2,1,1,0.5544,2,2,0.4742
2,94,2,1,2,2,6,1,1,2,0.5156,2,2,1.2034
2,95,2,1,1,1,4,2,1,1,0.5623,2,2,0.5461
2,96,2,1,1,1,6,1,1,1,1.7799,2,1,0.6757
2,97,3,1,2,1,6,1,0,2,0.5356,1,1,0.4554
2,98,3,1,2,1,2,1,0,2,1.0793,1,2,1.3192
2,99,3,1,1,1,3,2,1,1,0.4736,1,1,0.5854
2,100,3,1,1,1,3,1,1,1,0.6201,2,2,1.8839
2,101,3,1,1,2,4,1,0,1,0.7929,1,2,0.6487
2,102,3,1,1,1,4,1,1,7,7,1,2,2.6409
2,103,3,1,2,2,6,2,1,7,7,2,2,0.7888
2,104,3,1,1,2,5,1,0,1,0.9435,2,2,1.3752
2,105,3,1,1,2,2,2,0,1,0.6975,1,1,0.5533
2,106,3,1,1,1,5,1,1,1,0.5476,1,1,0.8514
2,107,3,1,2,2,4,2,1,2,0.6037,1,1,0.4595
2,108,3,1,2,1,2,2,0,2,1.124,2,1,0.9158
2,109,3,1,2,2,3,2,1,2,0.6976,2,2,0.6174
2,110,3,1,1,2,5,2,0,1,0.7566,1,2,2.0844
2,111,3,1,2,2,2,1,1,2,0.7249,2,2,0.9007
2,112,3,1,1,2,6,1,0,1,0.3735,2,2,0.6133
2,113,3,1,2,2,5,2,1,2,0.7408,1,2,0.7886
2,114,3,1,2,2,3,1,1,2,0.5196,2,2,0.6314
2,115,3,1,1,2,3,2,0,1,0.5551,2,2,0.6028
2,116,3,1,1,1,4,2,1,1,0.5501,2,1,0.4059
2,117,3,1,2,2,6,1,1,2,0.6532,1,1,0.7649
2,118,3,1,1,1,2,2,1,1,0.8034,1,1,0.7232
2,119,3,1,1,2,6,2,0,1,0.6169,2,2,0.8566
2,120,3,1,2,1,3,2,0,1,0.9408,2,1,0.908
2,121,3,1,1,1,1,2,1,1,0.5707,2,2,1.2585
2,122,3,1,2,1,4,1,0,2,1.2626,1,1,2.1424
2,123,3,1,1,1,6,2,1,1,0.752,2,1,0.8638
2,124,3,1,1,1,6,1,1,1,1.24,2,2,2.2478
2,125,3,1,2,1,5,2,0,2,1.6358,1,7,7
2,126,3,1,1,2,3,1,0,1,0.7621,1,2,0.8099
2,127,3,1,2,2,5,1,1,2,0.9131,2,2,0.8969
2,128,3,1,1,2,1,1,0,1,0.998,2,2,0.8538
2,129,3,1,2,1,5,1,0,1,0.4782,1,2,2.516
2,130,3,1,1,1,1,1,1,1,0.7381,1,1,0.7219
2,131,3,1,2,2,4,1,1,2,0.8245,1,1,1.5122
2,132,3,1,1,2,2,1,0,1,1.1295,2,2,0.9853
2,133,3,1,2,1,3,1,0,2,0.6957,1,2,0.9356
2,134,3,1,2,1,6,2,0,2,0.7291,2,2,0.6489
2,135,3,1,1,2,1,2,0,1,0.6248,1,2,1.0566
2,136,3,1,2,1,1,1,0,7,7,2,2,1.3166
2,137,3,1,2,1,4,2,0,7,7,2,2,1.8981
2,138,3,1,1,2,4,2,0,1,0.6909,1,1,0.4187
2,139,3,1,2,2,1,2,1,2,0.6351,2,2,1.5149
2,140,3,1,2,1,1,2,0,2,1.0041,1,2,2.012
2,141,3,1,1,1,5,2,1,1,0.6643,1,2,1.096
2,142,3,1,2,2,1,1,1,7,7,2,7,7
2,143,3,1,1,1,2,1,1,1,0.7126,1,1,0.7604
2,144,3,1,2,2,2,2,1,2,0.6591,2,2,0.5789
2,145,4,2,1,2,1,1,0,1,0.5306,1,2,1.2184
2,146,4,2,1,2,6,2,0,1,0.6016,2,2,0.8415
2,147,4,2,2,1,6,2,0,2,0.5651,2,2,0.7409
2,148,4,2,1,1,4,2,1,1,0.5587,1,1,0.8625
2,149,4,2,2,1,2,1,0,2,0.5627,2,2,0.4824
2,150,4,2,1,2,5,1,0,1,0.6113,1,1,0.4031
2,151,4,2,2,2,4,1,1,2,0.5504,1,2,0.7261
2,152,4,2,2,1,4,1,0,2,0.6557,2,1,0.6396
2,153,4,2,2,2,1,1,1,2,0.7442,2,1,0.536
2,154,4,2,1,2,6,1,0,1,0.7178,2,2,0.6376
2,155,4,2,1,1,6,1,1,1,0.7416,1,1,1.1094
2,156,4,2,2,1,1,1,0,2,1.2024,2,2,0.9302
2,157,4,2,2,1,5,1,0,2,1.0077,1,2,0.6075
2,158,4,2,1,1,6,2,1,1,0.6026,1,1,0.5864
2,159,4,2,1,1,3,1,1,1,0.5689,1,2,0.4887
2,160,4,2,2,2,2,1,1,2,0.5374,1,1,0.5851
2,161,4,2,1,1,5,2,1,1,0.6957,1,1,0.6795
2,162,4,2,1,2,2,2,0,1,0.6841,2,1,0.8599
2,163,4,2,1,2,4,1,0,1,0.5203,1,1,0.5041
2,164,4,2,2,2,6,1,1,2,0.9412,1,1,0.733
2,165,4,2,1,2,2,1,0,1,0.6788,1,1,0.7266
2,166,4,2,2,1,3,2,0,1,0.4922,2,2,1.1743
2,167,4,2,2,2,6,2,1,2,0.481,2,2,0.5928
2,168,4,2,2,1,2,2,0,1,0.4407,2,2,0.9139
2,169,4,2,2,2,1,2,1,2,0.503,1,1,0.8708
2,170,4,2,2,2,5,2,1,2,0.5591,2,2,0.7989
2,171,4,2,1,2,3,2,0,1,0.6741,2,2,0.8499
2,172,4,2,1,1,5,1,1,1,0.6141,1,2,0.9819
2,173,4,2,2,2,3,1,1,2,0.6291,1,1,0.9969
2,174,4,2,2,2,2,2,1,2,0.5845,2,2,0.8883
2,175,4,2,2,2,4,2,1,2,0.8732,1,1,0.601
2,176,4,2,2,1,3,1,0,1,0.8042,1,2,0.4006
2,177,4,2,1,2,1,2,0,1,0.7759,1,1,1.0157
2,178,4,2,2,1,4,2,0,2,1.0631,2,1,1.7509
2,179,4,2,1,1,4,1,1,1,0.7378,1,1,0.5296
2,180,4,2,1,1,1,1,1,1,1.0594,2,2,1.1072
2,181,4,2,1,1,3,2,1,1,0.5603,2,2,0.8
2,182,4,2,2,2,5,1,1,2,0.687,2,2,0.4788
2,183,4,2,1,2,5,2,0,1,0.7592,2,1,0.999
2,184,4,2,1,1,2,1,1,1,0.786,2,2,1.0258
2,185,4,2,1,2,4,2,0,1,0.6657,2,2,1.0975
2,186,4,2,1,2,3,1,0,1,0.7425,1,2,1.4303
2,187,4,2,2,1,1,2,0,2,0.974,2,2,0.8297
2,188,4,2,2,1,5,2,0,2,0.9374,1,1,1.1132
2,189,4,2,2,1,6,1,0,1,0.6825,1,1,1.0366
2,190,4,2,2,2,3,2,1,2,0.6125,1,2,0.9163
2,191,4,2,1,1,2,2,1,1,0.6576,2,1,0.7694
2,192,4,2,1,1,1,2,1,1,0.7277,2,2,0.3275
3,1,1,1,2,2,2,2,1,2,0.7124,2,2,0.4402
3,2,1,1,2,2,4,2,1,2,0.5361,2,2,0.7119
3,3,1,1,2,1,6,1,0,1,0.693,2,2,0.7153
3,4,1,1,2,1,3,2,0,2,0.7604,2,2,0.6802
3,5,1,1,1,2,3,2,0,1,0.6966,2,1,1.4484
3,6,1,1,2,1,2,1,0,2,0.8523,1,1,0.4521
3,7,1,1,1,2,1,1,0,1,1.1687,1,1,0.8965
3,8,1,1,2,2,4,1,1,2,0.6894,1,1,0.6091
3,9,1,1,1,2,3,1,0,1,0.9522,1,1,0.6159
3,10,1,1,2,1,2,2,0,2,1.0752,2,2,0.6749
3,11,1,1,1,1,6,2,1,1,0.7031,1,1,0.431
3,12,1,1,1,1,3,2,1,1,0.7702,2,2,0.818
3,13,1,1,1,2,2,1,0,1,0.6932,1,1,0.805
3,14,1,1,2,1,4,2,0,2,0.692,2,2,0.5478
3,15,1,1,2,1,5,2,0,2,0.6856,2,2,0.4774
3,16,1,1,2,2,1,2,1,2,0.81,1,1,0.5378
3,17,1,1,1,1,5,1,1,1,0.7477,2,2,0.5394
3,18,1,1,1,1,5,2,1,1,0.65,1,1,0.4418
3,19,1,1,1,2,6,2,0,1,0.7693,2,2,0.561
3,20,1,1,2,1,4,1,0,2,0.9629,2,2,0.5627
3,21,1,1,2,1,6,2,0,2,0.7085,1,1,0.8843
3,22,1,1,2,2,2,1,1,2,0.6889,1,1,0.4167
3,23,1,1,1,1,2,1,1,1,0.6971,2,2,0.7449
3,24,1,1,2,2,6,2,1,2,0.7547,2,2,0.7385
3,25,1,1,1,1,2,2,1,1,0.6844,1,1,0.3481
3,26,1,1,1,1,6,1,1,1,0.694,1,1,0.5498
3,27,1,1,1,1,1,2,1,1,0.6956,1,1,0.6154
3,28,1,1,1,1,4,2,1,1,0.6907,1,1,0.8665
3,29,1,1,1,2,2,2,0,1,0.7703,2,2,0.7541
3,30,1,1,1,2,1,2,0,1,0.6242,1,1,0.672
3,31,1,1,2,1,1,2,0,2,0.7524,2,2,0.6081
3,32,1,1,1,2,5,2,0,1,0.6952,2,2,0.5509
3,33,1,1,1,2,5,1,0,1,0.9175,2,2,0.4533
3,34,1,1,2,2,5,2,1,2,0.705,2,2,0.4968
3,35,1,1,1,2,4,1,0,1,0.7014,1,1,0.4292
3,36,1,1,1,1,1,1,1,1,0.5007,1,1,0.6765
3,37,1,1,2,2,3,2,1,2,0.8967,1,2,0.4965
3,38,1,1,1,2,6,1,0,1,0.9983,1,1,0.6622
3,39,1,1,2,1,1,1,0,2,0.7543,2,2,0.5461
3,40,1,1,2,2,1,1,1,2,0.6919,2,2,0.6757
3,41,1,1,2,1,5,1,0,2,0.8201,1,1,0.4199
3,42,1,1,2,2,6,1,1,2,0.6599,1,1,0.5796
3,43,1,1,1,2,4,2,0,1,0.8182,1,1,0.802
3,44,1,1,1,1,4,1,1,1,0.6367,1,1,0.4925
3,45,1,1,1,1,3,1,1,1,0.6972,1,1,0.6811
3,46,1,1,2,2,5,1,1,2,0.6621,2,2,0.7099
3,47,1,1,2,1,3,1,0,2,0.8073,2,2,0.855
3,48,1,1,2,2,3,1,1,2,0.7472,2,2,0.5389
3,49,2,2,2,2,5,2,1,2,0.7185,2,2,1.5343
3,50,2,2,1,2,5,2,0,1,0.6278,1,1,0.6756
3,51,2,2,1,2,2,1,0,1,0.82,1,1,1.1238
3,52,2,2,2,2,6,2,1,2,0.6931,1,1,1.3809
3,53,2,2,2,2,5,1,1,2,0.5802,1,1,0.8201
3,54,2,2,1,1,6,1,1,1,0.5555,1,1,1.5633
3,55,2,2,2,1,2,1,0,2,0.8253,1,1,0.873
3,56,2,2,1,1,2,2,1,1,0.6254,2,1,1.2492
3,57,2,2,2,2,3,1,1,2,0.5735,2,1,1.1973
3,58,2,2,2,1,1,2,0,2,0.7961,1,1,0.9718
3,59,2,2,2,1,2,2,0,2,0.8221,2,1,1.4459
3,60,2,2,2,2,6,1,1,2,0.5703,2,1,0.554
3,61,2,2,2,1,4,1,0,2,0.7175,2,1,1.0853
3,62,2,2,2,1,6,1,0,2,0.7142,1,2,1.4019
3,63,2,2,1,2,1,1,0,1,0.6543,1,2,1.278
3,64,2,2,2,1,4,2,0,2,0.7944,2,2,0.9062
3,65,2,2,2,1,3,1,0,2,0.7513,2,2,1.0551
3,66,2,2,2,2,1,2,1,2,0.759,2,2,1.3188
3,67,2,2,1,1,3,2,1,1,0.6881,1,1,1.0558
3,68,2,2,1,1,5,2,1,1,0.6957,1,1,0.9355
3,69,2,2,2,2,2,2,1,2,0.646,1,2,1.2058
3,70,2,2,2,2,2,1,1,2,0.6008,1,1,1.2245
3,71,2,2,1,2,4,1,0,1,0.7167,1,1,1.1484
3,72,2,2,1,1,6,2,1,1,0.7582,2,2,1.318
3,73,2,2,1,2,5,1,0,1,0.6873,2,2,1.0551
3,74,2,2,2,2,3,2,1,2,0.695,2,2,1.1268
3,75,2,2,2,1,5,2,0,2,0.8241,1,1,0.9359
3,76,2,2,1,2,3,2,0,1,0.7104,2,1,1.0142
3,77,2,2,1,2,3,1,0,1,0.7253,2,1,0.5811
3,78,2,2,1,2,2,2,0,1,0.6637,1,1,1.0315
3,79,2,2,1,1,2,1,1,1,0.6831,2,2,1.0509
3,80,2,2,2,2,1,1,1,2,0.6909,1,2,1.1226
3,81,2,2,2,2,4,1,1,2,0.6639,1,1,1.1597
3,82,2,2,1,1,1,1,1,1,0.5657,2,1,1.2535
3,83,2,2,1,1,4,1,1,1,0.6772,2,2,1.365
3,84,2,2,2,2,4,2,1,2,0.7512,2,2,1.119
3,85,2,2,2,1,1,1,0,2,0.845,2,2,1.0207
3,86,2,2,1,2,4,2,0,1,0.7599,2,1,1.2557
3,87,2,2,2,1,6,2,0,2,0.8126,1,1,1.0524
3,88,2,2,1,1,1,2,1,1,0.6282,2,2,0.74
3,89,2,2,2,1,3,2,0,2,0.8256,2,2,0.7454
3,90,2,2,1,2,6,1,0,1,1.0112,1,1,0.931
3,91,2,2,1,1,5,1,1,1,0.7003,2,2,1.0681
3,92,2,2,1,1,4,2,1,1,0.6963,1,1,0.936
3,93,2,2,1,2,1,2,0,1,0.6819,1,1,1.0496
3,94,2,2,1,2,6,2,0,1,0.6255,1,1,0.9933
3,95,2,2,2,1,5,1,0,2,0.692,1,2,1.2518
3,96,2,2,1,1,3,1,1,1,0.6637,2,1,1.7995
3,97,3,2,1,2,1,2,0,1,0.7194,1,1,0.7032
3,98,3,2,1,2,1,1,0,1,0.6321,2,2,0.4879
3,99,3,2,1,2,6,1,0,1,0.6285,1,1,1.0603
3,100,3,2,2,2,4,1,1,2,0.7694,1,1,1.3292
3,101,3,2,1,2,2,2,0,1,0.6867,1,1,0.7345
3,102,3,2,1,1,1,2,1,1,0.5523,2,1,0.9841
3,103,3,2,2,2,4,2,1,2,0.6666,1,1,0.8424
3,104,3,2,2,2,5,2,1,2,0.7228,2,2,1.1546
3,105,3,2,1,2,4,2,0,1,0.7003,2,2,0.9401
3,106,3,2,1,2,5,1,0,1,0.6977,2,2,0.8734
3,107,3,2,1,1,2,1,1,1,1.1901,2,1,1.3659
3,108,3,2,1,1,3,1,1,1,0.6601,1,1,0.8359
3,109,3,2,1,1,4,2,1,1,0.4956,2,2,1.3114
3,110,3,2,1,1,5,1,1,1,0.6924,1,1,0.8682
3,111,3,2,1,1,3,2,1,1,0.5971,1,1,0.7728
3,112,3,2,1,2,3,1,0,1,0.6429,2,1,1.0107
3,113,3,2,2,1,4,2,0,2,0.7859,1,1,0.7057
3,114,3,2,1,2,2,1,0,1,0.5588,2,1,2.2066
3,115,3,2,2,2,1,1,1,2,0.6183,2,2,0.7302
3,116,3,2,1,2,6,2,0,1,0.7047,2,2,1.2005
3,117,3,2,2,2,2,2,1,2,0.6116,2,2,1.6194
3,118,3,2,1,2,3,2,0,1,0.6762,1,1,1.62
3,119,3,2,2,2,6,1,1,2,0.6715,2,2,1.1034
3,120,3,2,1,2,4,1,0,1,0.5498,2,2,1.3016
3,121,3,2,2,1,1,1,0,2,0.5664,1,1,0.8062
3,122,3,2,2,2,6,2,1,1,0.5653,1,2,1.1649
3,123,3,2,2,2,2,1,1,2,0.6709,2,2,0.8467
3,124,3,2,1,1,6,1,1,1,0.6984,1,1,0.8742
3,125,3,2,1,2,5,2,0,1,0.7546,1,1,1.1224
3,126,3,2,1,1,1,1,1,1,0.6277,2,2,0.8674
3,127,3,2,2,1,5,2,0,2,0.7714,2,2,0.6912
3,128,3,2,2,1,3,1,0,2,0.7716,2,2,1.7794
3,129,3,2,2,1,6,2,0,2,0.742,1,1,1.3018
3,130,3,2,2,2,3,1,1,2,0.6475,1,1,0.7593
3,131,3,2,1,1,4,1,1,1,0.7456,2,1,1.0494
3,132,3,2,2,1,4,1,0,2,0.6783,2,2,0.918
3,133,3,2,2,2,1,2,1,2,0.7513,1,1,0.8631
3,134,3,2,2,1,2,1,0,2,0.6155,1,1,1.3033
3,135,3,2,2,1,3,2,0,2,0.7602,2,2,1.3839
3,136,3,2,1,1,2,2,1,1,0.6304,1,1,0.8702
3,137,3,2,2,2,5,1,1,2,0.6865,2,2,1.1184
3,138,3,2,1,1,6,2,1,1,0.6876,1,1,1.1194
3,139,3,2,2,1,2,2,0,2,0.6887,2,2,0.9925
3,140,3,2,1,1,5,2,1,1,0.639,1,1,1.5188
3,141,3,2,2,2,3,2,1,2,0.6763,1,1,1.4921
3,142,3,2,2,1,5,1,0,2,0.6326,1,2,1.3844
3,143,3,2,2,1,1,2,0,2,0.7125,1,1,1.0163
3,144,3,2,2,1,6,1,0,2,0.8077,2,2,0.9835
3,145,4,1,2,1,2,2,0,2,0.6493,1,1,0.5691
3,146,4,1,1,2,2,2,0,1,0.5737,1,1,0.4295
3,147,4,1,2,2,2,1,1,2,0.629,2,2,0.5488
3,148,4,1,2,1,1,2,0,2,0.6946,2,2,0.6784
3,149,4,1,2,1,1,1,0,2,0.6308,1,2,1.4466
3,150,4,1,2,1,6,2,0,2,0.6585,2,2,0.5783
3,151,4,1,1,1,6,1,1,1,0.7005,1,2,0.3644
3,152,4,1,2,2,4,1,1,2,0.5947,1,1,0.6425
3,153,4,1,2,2,1,1,1,2,0.5662,1,1,0.486
3,154,4,1,2,1,6,1,0,2,0.7194,2,2,0.5752
3,155,4,1,2,2,2,2,1,2,0.6334,2,2,0.4892
3,156,4,1,2,1,5,2,0,2,0.9381,1,1,0.7299
3,157,4,1,1,1,2,1,1,1,0.5477,2,2,0.9156
3,158,4,1,2,2,4,2,1,2,0.5333,1,1,0.3891
3,159,4,1,1,2,1,2,0,1,0.4959,2,2,0.5437
3,160,4,1,1,2,1,1,0,1,1.0735,1,1,0.4813
3,161,4,1,2,1,2,1,0,2,0.814,2,2,0.5418
3,162,4,1,1,2,5,1,0,1,0.7516,2,2,0.5434
3,163,4,1,2,1,4,2,0,2,0.5612,1,1,0.417
3,164,4,1,1,1,4,1,1,1,0.7445,2,2,0.5363
3,165,4,1,2,2,1,2,1,2,0.5541,1,1,0.4099
3,166,4,1,1,2,5,2,0,1,0.8132,1,1,0.477
3,167,4,1,1,2,4,1,0,1,0.7456,2,1,0.5374
3,168,4,1,2,1,5,1,0,2,0.8473,2,1,0.6391
3,169,4,1,1,1,1,1,1,1,0.6628,1,1,0.5826
3,170,4,1,2,2,5,1,1,2,0.7571,1,1,0.4849
3,171,4,1,1,2,2,1,0,1,0.7536,1,1,0.6733
3,172,4,1,2,2,3,2,1,2,0.4977,2,2,0.9935
3,173,4,1,2,2,3,1,1,2,0.6805,1,1,0.4723
3,174,4,1,1,2,3,1,0,1,0.7527,2,2,0.4805
3,175,4,1,1,1,4,2,1,1,0.7087,2,2,0.5005
3,176,4,1,1,1,1,2,1,1,0.6581,1,1,0.5139
3,177,4,1,2,2,5,2,1,2,0.823,1,1,0.5508
3,178,4,1,1,2,3,2,0,1,0.6849,1,1,0.5407
3,179,4,1,1,1,3,2,1,1,0.6865,1,1,0.4143
3,180,4,1,1,1,5,2,1,1,0.6425,2,2,0.6263
3,181,4,1,2,1,3,2,0,2,0.8817,2,2,0.6095
3,182,4,1,1,2,4,2,0,1,0.7488,1,1,0.5405
3,183,4,1,2,2,6,2,1,2,0.6864,2,2,0.6062
3,184,4,1,1,1,6,2,1,1,0.641,2,2,0.6887
3,185,4,1,1,1,5,1,1,1,0.6934,2,2,0.5492
3,186,4,1,1,1,2,2,1,1,0.631,1,1,0.6148
3,187,4,1,2,1,4,1,0,2,0.8298,2,2,0.8136
3,188,4,1,1,1,3,1,1,1,0.7005,2,2,0.6843
3,189,4,1,1,2,6,2,0,1,0.625,1,1,0.7368
3,190,4,1,1,2,6,1,0,1,1.0901,2,2,0.7539
3,191,4,1,2,1,3,1,0,2,0.88,2,2,0.6078
3,192,4,1,2,2,6,1,1,2,0.8229,1,1,0.4865
4,1,1,2,2,2,2,2,1,2,0.9553,2,2,2.0271
4,2,1,2,2,2,4,2,1,2,0.8876,2,1,2.0234
4,3,1,2,2,1,6,1,0,2,1.1759,2,1,1.6076
4,4,1,2,2,1,3,2,0,2,0.7188,2,2,1.0865
4,5,1,2,1,2,3,2,0,1,0.7552,2,2,0.867
4,6,1,2,2,1,2,1,0,2,1.0792,1,1,1.1909
4,7,1,2,1,2,1,1,0,2,0.8176,1,1,1.0423
4,8,1,2,2,2,4,1,1,2,0.7697,1,1,1.0735
4,9,1,2,1,2,3,1,0,1,1.3821,1,1,0.9819
4,10,1,2,2,1,2,2,0,2,0.9484,2,2,0.6761
4,11,1,2,1,1,6,2,1,1,0.8846,1,1,0.9963
4,12,1,2,1,1,3,2,1,1,0.8231,2,1,0.8069
4,13,1,2,1,2,2,1,0,1,1.1139,1,2,0.9696
4,14,1,2,2,1,4,2,0,2,1.3039,2,2,1.2237
4,15,1,2,2,1,5,2,0,2,0.8151,2,2,0.7989
4,16,1,2,2,2,1,2,1,2,0.8021,1,1,0.9779
4,17,1,2,1,1,5,1,1,1,0.8046,2,2,0.8524
4,18,1,2,1,1,5,2,1,1,0.8086,1,1,1.4324
4,19,1,2,1,2,6,2,0,1,0.8238,2,1,0.8075
4,20,1,2,2,1,4,1,0,2,1.1145,2,2,0.9704
4,21,1,2,2,1,6,2,0,2,0.9486,1,1,0.8044
4,22,1,2,2,2,2,1,1,2,0.7554,1,2,0.8031
4,23,1,2,1,1,2,1,1,1,0.9064,2,2,1.0182
4,24,1,2,2,2,6,2,1,2,0.6816,2,2,0.7934
4,25,1,2,1,1,2,2,1,1,0.8371,1,2,0.9489
4,26,1,2,1,1,6,1,1,1,0.8234,1,1,1.5112
4,27,1,2,1,1,1,2,1,1,1.0122,1,1,0.996
4,28,1,2,1,1,4,2,1,1,0.8227,1,1,0.9345
4,29,1,2,1,2,2,2,0,1,0.884,2,1,1.5718
4,30,1,2,1,2,1,2,0,1,0.8059,1,1,1.4296
4,31,1,2,2,1,1,2,0,2,0.9372,2,2,0.665
4,32,1,2,1,2,5,2,0,1,1.3854,2,2,0.7292
4,33,1,2,1,2,5,1,0,1,0.8318,2,2,1.1355
4,34,1,2,2,2,5,2,1,2,0.949,2,2,0.8688
4,35,1,2,1,2,4,1,0,1,0.761,1,1,0.8088
4,36,1,2,1,1,1,1,1,1,0.8238,1,2,0.6155
4,37,1,2,2,2,3,2,1,2,0.7908,1,1,0.9026
4,38,1,2,1,2,6,1,0,1,0.6955,1,2,0.8712
4,39,1,2,2,1,1,1,0,2,1.4159,2,1,0.9516
4,40,1,2,2,2,1,1,1,2,1.1057,2,1,0.8975
4,41,1,2,2,1,5,1,0,2,0.9588,1,1,0.6226
4,42,1,2,2,2,6,1,1,2,0.7383,1,1,0.9781
4,43,1,2,1,2,4,2,0,1,0.7526,1,2,0.9924
4,44,1,2,1,1,4,1,1,1,0.7271,1,1,0.7749
4,45,1,2,1,1,3,1,1,1,0.7612,1,1,0.937
4,46,1,2,2,2,5,1,1,2,0.8748,2,2,0.7946
4,47,1,2,2,1,3,1,0,2,1.3333,2,1,0.6771
4,48,1,2,2,2,3,1,1,2,1.3578,2,2,0.7015
4,49,2,1,2,2,5,2,1,2,0.7665,2,2,0.7503
4,50,2,1,1,2,5,2,0,1,0.7888,1,1,0.8366
4,51,2,1,1,2,2,1,0,1,1.0083,1,1,0.8001
4,52,2,1,2,2,6,2,1,2,1.071,1,1,0.7988
4,53,2,1,2,2,5,1,1,2,0.9418,1,1,0.6696
4,54,2,1,1,1,6,1,1,1,1.0869,1,2,1.0707
4,55,2,1,2,1,2,1,0,2,0.9152,1,1,0.6429
4,56,2,1,1,1,2,2,1,1,1.0146,2,2,0.6144
4,57,2,1,2,2,3,1,1,2,0.9339,2,2,0.8537
4,58,2,1,2,1,1,2,0,2,0.7576,1,1,1.7014
4,59,2,1,2,1,2,2,0,2,0.7581,2,2,0.6139
4,60,2,1,2,2,6,1,1,2,0.7532,2,2,0.865
4,61,2,1,2,1,4,1,0,2,0.8211,2,2,0.9329
4,62,2,1,2,1,6,1,0,2,0.8185,1,1,1.0582
4,63,2,1,1,2,1,1,0,1,1.3146,1,1,0.6584
4,64,2,1,2,1,4,2,0,2,0.7388,2,2,0.7226
4,65,2,1,2,1,3,1,0,2,1.0119,2,2,0.8677
4,66,2,1,2,2,1,2,1,2,0.6959,2,2,0.6797
4,67,2,1,1,1,3,2,1,1,0.7601,1,1,0.9359
4,68,2,1,1,1,5,2,1,1,0.7574,1,1,0.7412
4,69,2,1,2,2,2,2,1,2,0.6753,1,1,0.595
4,70,2,1,2,2,2,1,1,2,0.746,1,1,0.8578
4,71,2,1,1,2,4,1,0,1,0.8022,1,1,0.658
4,72,2,1,1,1,6,2,1,1,0.9591,2,2,0.7509
4,73,2,1,1,2,5,1,0,1,0.749,2,2,0.6687
4,74,2,1,2,2,3,2,1,2,0.9529,2,2,0.6167
4,75,2,1,2,1,5,2,0,2,1.204,1,1,1.0597
4,76,2,1,1,2,3,2,0,1,1.2117,2,2,0.6834
4,77,2,1,1,2,3,1,0,1,1.1883,2,2,0.5961
4,78,2,1,1,2,2,2,0,1,0.7876,1,1,0.7074
4,79,2,1,1,1,2,1,1,1,0.8047,2,2,0.8525
4,80,2,1,2,2,1,1,1,2,0.6924,1,1,0.7402
4,81,2,1,2,2,4,1,1,2,0.622,1,1,0.6698
4,82,2,1,1,1,1,1,1,1,0.7502,2,2,0.542
4,83,2,1,1,1,4,1,1,1,1.0078,2,2,0.8636
4,84,2,1,2,2,4,2,1,2,1.0118,2,2,0.9315
4,85,2,1,2,1,1,1,0,1,1.09,2,7,7
4,86,2,1,1,2,4,2,0,1,0.8671,2,2,0.7228
4,87,2,1,2,1,6,2,0,2,0.7731,1,1,0.8209
4,88,2,1,1,1,1,2,1,1,1.2081,2,2,0.7439
4,89,2,1,2,1,3,2,0,2,1.2657,2,2,0.6095
4,90,2,1,1,2,6,1,0,1,1.2725,1,1,0.7443
4,91,2,1,1,1,5,1,1,1,0.8181,2,2,1.5699
4,92,2,1,1,1,4,2,1,1,0.7561,1,1,0.6759
4,93,2,1,1,2,1,2,0,1,1.1455,1,1,0.6813
4,94,2,1,1,2,6,2,0,1,0.9301,1,1,0.6579
4,95,2,1,2,1,5,1,0,2,0.9303,1,1,0.5301
4,96,2,1,1,1,3,1,1,1,0.8157,2,2,1.0555
4,97,3,1,1,2,1,2,0,1,1.684,1,1,0.8358
4,98,3,1,1,2,1,1,0,1,0.8795,2,2,0.6712
4,99,3,1,1,2,6,1,0,1,0.8274,1,1,0.7472
4,100,3,1,2,2,4,1,1,2,0.629,1,1,0.5488
4,101,3,1,1,2,2,2,0,1,1.2706,1,1,0.6784
4,102,3,1,1,1,1,2,1,1,1.0671,2,2,0.5389
4,103,3,1,2,2,4,2,1,2,0.8245,1,1,0.7443
4,104,3,1,2,2,5,2,1,2,1.5221,2,2,0.8019
4,105,3,1,1,2,4,2,0,1,0.9448,2,2,0.5446
4,106,3,1,1,2,5,1,0,1,0.8185,2,2,0.8022
4,107,3,1,1,1,2,1,1,1,0.8695,2,2,0.7893
4,108,3,1,1,1,3,1,1,1,0.7285,1,1,0.7123
4,109,3,1,1,1,4,2,1,1,0.6816,2,2,0.6654
4,110,3,1,1,1,5,1,1,1,0.7458,1,1,0.6016
4,111,3,1,1,1,3,2,1,1,0.8806,1,1,0.6724
4,112,3,1,1,2,3,1,0,1,0.8808,2,2,0.6726
4,113,3,1,2,1,4,2,0,2,0.945,1,1,0.6088
4,114,3,1,1,2,2,1,0,1,0.8238,2,2,0.5516
4,115,3,1,2,2,1,1,1,2,0.8541,2,2,0.7099
4,116,3,1,1,2,6,2,0,1,0.9352,2,2,0.599
4,117,3,1,2,2,2,2,1,2,0.9943,2,2,0.658
4,118,3,1,1,2,3,2,0,1,0.9305,1,1,0.5943
4,119,3,1,2,2,6,1,1,2,0.7453,2,2,0.6651
4,120,3,1,1,2,4,1,0,1,0.7455,2,2,0.7293
4,121,3,1,2,1,1,1,0,2,0.9311,1,1,0.8508
4,122,3,1,2,2,6,2,1,2,0.871,1,1,0.6628
4,123,3,1,2,2,2,1,1,2,1.395,2,2,0.6108
4,124,3,1,1,1,6,1,1,1,0.75,1,1,0.6698
4,125,3,1,1,2,5,2,0,1,0.6862,1,1,0.798
4,126,3,1,1,1,1,1,1,1,0.7607,2,2,0.6805
4,127,3,1,2,1,5,2,0,2,0.7609,2,7,7
4,128,3,1,2,1,3,1,0,2,0.8877,2,2,0.7435
4,129,3,1,2,1,6,2,0,2,0.6775,1,1,0.7893
4,130,3,1,2,2,3,1,1,2,0.6763,1,1,0.5961
4,131,3,1,1,1,4,1,1,2,0.7471,2,2,0.7223
4,132,3,1,2,1,4,1,0,2,0.7961,2,2,0.6519
4,133,3,1,2,2,1,2,1,2,0.8081,1,1,0.7279
4,134,3,1,2,1,2,1,0,2,0.8892,1,1,0.745
4,135,3,1,2,1,3,2,0,2,0.8189,2,2,0.8026
4,136,3,1,1,1,2,2,1,1,0.8816,1,1,0.7374
4,137,3,1,2,2,5,1,1,2,0.951,2,2,0.6788
4,138,3,1,1,1,6,2,1,1,0.7592,1,1,0.551
4,139,3,1,2,1,2,2,0,2,1.069,2,2,0.6688
4,140,3,1,1,1,5,2,1,1,0.8133,1,1,0.669
4,141,3,1,2,2,3,2,1,2,0.8775,1,1,0.8612
4,142,3,1,2,1,5,1,0,2,0.7416,1,1,1.6854
4,143,3,1,2,1,1,2,0,2,1.1902,1,1,0.726
4,144,3,1,2,1,6,1,0,2,0.7358,2,2,1.2955
4,145,4,2,2,1,2,2,0,2,0.7168,1,1,0.8285
4,146,4,2,1,2,2,2,0,1,0.8723,1,1,0.6
4,147,4,2,2,2,2,1,1,2,0.8673,2,2,0.7231
4,148,4,2,2,1,1,2,0,2,0.6284,2,2,0.8042
4,149,4,2,2,1,1,1,0,2,0.6272,1,1,0.739
4,150,4,2,2,1,6,2,0,2,0.8246,2,2,0.8083
4,151,4,2,1,1,6,1,1,2,0.6196,1,2,0.8522
4,152,4,2,2,2,4,1,1,2,0.698,1,1,0.8098
4,153,4,2,2,2,1,1,1,2,0.6615,1,1,0.5813
4,154,4,2,2,1,6,1,0,2,1.0287,2,2,1.0125
4,155,4,2,2,2,2,2,1,2,1.3042,2,2,0.904
4,156,4,2,2,1,5,2,0,2,0.8653,1,2,0.9131
4,157,4,2,1,1,2,1,1,1,0.806,2,1,0.5338
4,158,4,2,2,2,4,2,1,2,0.7274,1,1,0.9032
4,159,4,2,1,2,1,2,0,1,1.592,2,1,0.7438
4,160,4,2,1,2,1,1,0,2,0.8536,1,1,0.723
4,161,4,2,2,1,2,1,0,2,1.0123,2,1,0.8681
4,162,4,2,1,2,5,1,0,1,0.8721,2,1,0.5359
4,163,4,2,2,1,4,2,0,2,0.8104,1,1,0.8582
4,164,4,2,1,1,4,1,1,1,0.7386,2,1,0.9784
4,165,4,2,2,2,1,2,1,2,0.8816,1,2,0.6094
4,166,4,2,1,2,5,2,0,1,0.8486,1,1,0.5124
4,167,4,2,1,2,4,1,0,1,0.8385,2,2,0.6303
4,168,4,2,2,1,5,1,0,2,0.6937,2,2,0.6775
4,169,4,2,1,1,1,1,1,1,0.95,1,1,0.6137
4,170,4,2,2,2,5,1,1,2,0.817,1,1,0.7367
4,171,4,2,1,2,2,1,0,1,1.1424,1,1,1.1901
4,172,4,2,2,2,3,2,1,2,0.8168,2,2,0.6726
4,173,4,2,2,2,3,1,1,2,0.753,1,1,0.7368
4,174,4,2,1,2,3,1,0,1,0.8746,2,1,0.6024
4,175,4,2,1,1,4,2,1,1,0.7254,2,1,0.6452
4,176,4,2,1,1,1,2,1,1,0.7499,1,2,0.6057
4,177,4,2,2,2,5,2,1,2,0.7169,1,1,0.8287
4,178,4,2,1,2,3,2,0,1,1.2682,1,2,0.932
4,179,4,2,1,1,3,2,1,1,0.9698,1,2,0.6335
4,180,4,2,1,1,5,2,1,1,0.8897,2,2,1.0015
4,181,4,2,2,1,3,2,0,2,1.2645,2,2,0.8003
4,182,4,2,1,2,4,2,0,1,0.8152,1,1,0.671
4,183,4,2,2,2,6,2,1,2,0.8155,2,1,0.7352
4,184,4,2,1,1,6,2,1,1,0.8569,2,1,1.0966
4,185,4,2,1,1,5,1,1,1,0.7895,2,2,0.8373
4,186,4,2,1,1,2,2,1,1,1.0141,1,1,0.6779
4,187,4,2,2,1,4,1,0,2,0.9386,2,1,0.6023
4,188,4,2,1,1,3,1,1,1,0.7254,2,1,0.9651
4,189,4,2,1,2,6,2,0,1,0.8514,1,1,0.7712
4,190,4,2,1,2,6,1,0,2,0.6817,2,2,0.6518
4,191,4,2,2,1,3,1,0,2,1.512,2,2,0.6638
4,192,4,2,2,2,6,1,1,2,0.8369,1,2,0.6926
5,1,1,1,2,2,1,1,1,2,0.7014,2,2,0.8772
5,2,1,1,2,2,6,2,1,2,0.7576,2,1,1.3174
5,3,1,1,1,2,3,2,0,1,0.9905,2,2,0.7823
5,4,1,1,1,2,4,2,0,1,0.7972,1,1,0.781
5,5,1,1,2,2,6,1,1,2,0.8196,1,1,0.6753
5,6,1,1,1,1,6,1,1,1,0.7558,1,1,0.7395
5,7,1,1,1,2,3,1,0,1,1.0053,2,2,0.6691
5,8,1,1,2,1,3,2,0,1,0.6098,2,2,0.6622
5,9,1,1,1,2,4,1,0,1,0.8184,2,2,0.8022
5,10,1,1,1,1,5,2,1,1,0.6891,2,1,0.7369
5,11,1,1,1,2,5,1,0,1,0.7306,2,1,0.7783
5,12,1,1,2,2,3,2,1,2,0.6726,2,2,0.7844
5,13,1,1,1,1,3,2,1,1,0.631,2,2,0.7427
5,14,1,1,2,1,5,2,0,2,0.7525,1,2,0.5443
5,15,1,1,2,1,3,1,0,2,0.9182,2,2,0.5819
5,16,1,1,2,1,6,2,0,2,0.8205,2,2,0.7403
5,17,1,1,2,1,2,2,0,2,0.7501,1,1,0.7339
5,18,1,1,2,1,2,1,0,2,0.7555,2,2,0.4832
5,19,1,1,2,2,4,1,1,2,0.6239,2,2,0.6077
5,20,1,1,2,1,1,2,0,2,0.7587,2,2,0.9345
5,21,1,1,2,2,3,1,1,2,0.692,1,1,0.9318
5,22,1,1,2,1,5,1,0,2,0.688,2,2,0.6717
5,23,1,1,1,2,2,1,0,1,0.9442,1,1,0.672
5,24,1,1,1,1,4,2,1,2,0.8046,1,1,0.785
5,25,1,1,1,1,1,1,1,2,0.7595,2,2,0.787
5,26,1,1,1,1,1,2,1,1,0.674,1,1,0.5938
5,27,1,1,1,2,1,1,0,1,0.8205,1,1,0.6763
5,28,1,1,1,1,6,2,1,1,1.001,1,1,0.7927
5,29,1,1,1,2,6,1,0,1,0.8077,2,2,0.8555
5,30,1,1,2,2,4,2,1,1,0.9802,1,1,0.592
5,31,1,1,1,1,5,1,1,1,0.7548,1,1,0.8026
5,32,1,1,2,2,5,2,1,2,0.6896,2,2,0.8654
5,33,1,1,2,2,1,2,1,2,0.7575,1,1,0.6133
5,34,1,1,1,1,4,1,1,1,0.7526,1,1,0.8003
5,35,1,1,1,2,6,2,0,1,0.8323,1,1,0.624
5,36,1,1,1,1,3,1,1,1,0.8795,1,1,0.5433
5,37,1,1,1,2,5,2,0,1,0.7532,2,2,0.9289
5,38,1,1,1,2,2,2,0,1,0.6225,1,1,0.6703
5,39,1,1,2,1,6,1,0,2,1.1347,1,1,0.6065
5,40,1,1,2,1,4,2,0,1,0.9024,2,2,1.0447
5,41,1,1,2,1,4,1,0,1,0.7486,1,1,0.7878
5,42,1,1,2,2,2,2,1,2,0.8028,1,1,0.7226
5,43,1,1,2,2,2,1,1,2,1.3959,2,2,0.5477
5,44,1,1,2,2,5,1,1,2,0.7223,1,1,0.578
5,45,1,1,2,1,1,1,0,2,0.8806,2,1,0.8004
5,46,1,1,1,1,2,1,1,1,0.8514,1,1,0.7712
5,47,1,1,1,2,1,2,0,1,0.7457,2,2,0.6655
5,48,1,1,1,1,2,2,1,1,0.9666,1,1,0.7584
5,49,2,2,2,2,2,1,1,2,0.9325,1,1,1.3004
5,50,2,2,2,2,4,2,1,2,0.7219,2,1,0.7696
5,51,2,2,1,1,5,1,1,2,0.7919,1,1,0.7841
5,52,2,2,1,2,5,2,0,1,0.8226,1,2,0.8064
5,53,2,2,2,2,3,1,1,2,0.6654,1,1,0.8412
5,54,2,2,1,2,6,1,0,2,1.0651,2,1,1.2347
5,55,2,2,2,2,5,2,1,2,0.7482,2,1,0.8599
5,56,2,2,2,2,1,2,1,2,0.9044,1,1,0.9521
5,57,2,2,1,1,1,1,1,1,0.8546,2,2,0.7105
5,58,2,2,1,1,6,1,1,1,1.0402,1,1,0.96
5,59,2,2,1,1,4,1,1,1,0.8861,2,2,1.0618
5,60,2,2,2,2,6,1,1,2,0.498,2,2,0.8658
5,61,2,2,1,2,2,2,0,1,0.8859,1,1,0.8057
5,62,2,2,2,2,4,1,1,2,0.8376,1,1,0.9494
5,63,2,2,2,2,2,2,1,2,0.7475,2,2,1.1152
5,64,2,2,1,2,4,1,0,1,0.9405,1,1,0.6683
5,65,2,2,1,2,1,1,0,1,1.0805,2,2,1.5123
5,66,2,2,2,2,5,1,1,2,0.7573,1,1,0.4211
5,67,2,2,2,2,6,2,1,2,0.8244,1,1,2.0241
5,68,2,2,2,1,1,1,0,2,1.2634,1,1,0.6072
5,69,2,2,1,2,3,2,0,1,0.9032,1,2,0.887
5,70,2,2,1,1,5,2,1,1,0.7563,1,1,0.6121
5,71,2,2,2,1,2,2,0,1,0.7396,1,1,0.6626
5,72,2,2,1,2,1,2,0,1,0.935,1,1,0.5988
5,73,2,2,2,1,3,2,0,2,0.9065,2,2,0.8903
5,74,2,2,2,1,6,2,0,2,0.9509,2,1,0.9348
5,75,2,2,1,1,1,2,1,1,0.9203,1,1,0.52
5,76,2,2,1,2,2,1,0,1,0.8174,2,1,0.4812
5,77,2,2,1,2,6,2,0,1,1.1868,2,2,1.0426
5,78,2,2,1,1,3,1,1,1,0.8745,2,2,1.9463
5,79,2,2,1,1,4,2,1,1,0.8722,1,1,1.688
5,80,2,2,1,2,4,2,0,1,1.7165,2,1,0.9963
5,81,2,2,2,1,5,2,0,2,0.859,2,1,0.6508
5,82,2,2,1,2,3,1,0,1,1.1109,2,2,0.6466
5,83,2,2,1,1,2,2,1,1,0.6866,2,2,0.7343
5,84,2,2,1,2,5,1,0,1,1.0288,2,1,0.6286
5,85,2,2,1,1,3,2,1,1,0.5361,2,2,0.6479
5,86,2,2,2,1,3,1,0,2,0.7401,1,1,0.5319
5,87,2,2,2,1,6,1,0,2,1.0617,1,1,0.5335
5,88,2,2,2,1,5,1,0,2,0.8191,2,2,0.5469
5,89,2,2,2,2,1,1,1,2,0.8207,2,2,0.7405
5,90,2,2,2,1,2,1,0,2,0.8143,2,2,0.6061
5,91,2,2,2,1,1,2,0,2,1.1411,2,2,0.8689
5,92,2,2,1,1,6,2,1,1,0.8133,1,1,0.7971
5,93,2,2,2,1,4,2,0,2,0.8761,2,2,0.9878
5,94,2,2,2,2,3,2,1,2,0.6748,1,1,0.6586
5,95,2,2,2,1,4,1,0,2,0.803,1,1,0.4668
5,96,2,2,1,1,2,1,1,1,0.887,1,1,0.4227
5,97,3,2,2,2,4,2,1,2,0.8408,1,1,0.5046
5,98,3,2,2,2,5,1,1,2,0.6218,1,1,0.4775
5,99,3,2,2,1,6,1,0,2,0.758,2,2,0.6778
5,100,3,2,2,1,2,2,0,2,0.9554,2,2,0.7471
5,101,3,2,2,1,1,1,0,2,0.6812,2,2,0.601
5,102,3,2,2,1,6,2,0,2,0.7402,1,1,0.532
5,103,3,2,1,2,4,1,0,2,0.6256,2,2,0.7825
5,104,3,2,2,1,4,1,0,2,0.5937,1,1,0.7055
5,105,3,2,2,2,6,2,1,2,0.6226,1,1,0.6064
5,106,3,2,1,1,5,2,1,2,0.8854,1,1,0.5274
5,107,3,2,1,1,3,1,1,1,0.813,2,2,0.6688
5,108,3,2,1,1,4,2,1,1,0.7779,1,1,0.5058
5,109,3,2,1,1,1,2,1,1,1.0591,2,2,0.5309
5,110,3,2,1,2,5,1,0,1,1.2005,1,1,0.8003
5,111,3,2,2,1,1,2,0,2,0.7512,2,2,0.735
5,112,3,2,1,2,2,2,0,1,0.6926,2,2,0.5484
5,113,3,2,1,2,1,2,0,1,0.8105,1,1,0.6663
5,114,3,2,2,1,4,2,0,2,1.0144,2,2,0.8062
5,115,3,2,1,1,2,2,1,1,0.5012,2,2,0.805
5,116,3,2,2,2,6,1,1,2,0.8722,2,2,0.92
5,117,3,2,1,2,6,2,0,1,0.6776,2,2,0.5973
5,118,3,2,1,2,3,1,0,1,0.841,2,2,0.5688
5,119,3,2,2,2,2,2,1,2,0.6794,1,1,1.0472
5,120,3,2,2,1,2,1,0,2,0.8033,1,1,0.5311
5,121,3,2,2,2,4,1,1,2,0.6769,2,2,0.5967
5,122,3,2,2,2,2,1,1,2,0.7006,2,2,0.7484
5,123,3,2,2,1,5,2,0,2,0.6943,1,1,0.422
5,124,3,2,1,1,5,1,1,2,0.5693,2,2,0.657
5,125,3,2,1,2,4,2,0,1,0.761,2,2,0.5528
5,126,3,2,2,2,1,1,1,2,0.8788,2,2,0.5426
5,127,3,2,1,2,6,1,0,2,1.3924,2,2,1.1045
5,128,3,2,2,2,3,2,1,2,0.8254,2,2,0.6812
5,129,3,2,1,2,1,1,0,1,1.122,2,2,0.6578
5,130,3,2,2,1,3,1,0,2,1.134,2,2,0.9258
5,131,3,2,2,2,3,1,1,2,0.7474,1,1,0.6032
5,132,3,2,1,2,3,2,0,1,1.4464,1,1,1.0462
5,133,3,2,2,2,1,2,1,2,1.0583,1,1,0.7221
5,134,3,2,1,1,3,2,1,1,1.0114,2,1,0.4192
5,135,3,2,1,2,5,2,0,1,0.9865,1,1,0.5223
5,136,3,2,2,1,5,1,0,2,0.8196,1,1,0.6114
5,137,3,2,1,1,1,1,1,1,0.7507,2,2,0.6065
5,138,3,2,1,1,2,1,1,1,0.6935,1,1,0.4213
5,139,3,2,1,1,6,1,1,1,0.7605,1,1,0.6803
5,140,3,2,1,2,2,1,0,1,1.0689,1,1,0.5407
5,141,3,2,1,1,6,2,1,1,0.7036,1,1,0.4313
5,142,3,2,2,2,5,2,1,2,0.619,1,2,0.9868
5,143,3,2,2,1,3,2,0,2,0.8613,1,1,0.5251
5,144,3,2,1,1,4,1,1,1,0.7872,1,1,0.643
5,145,4,1,2,2,2,2,1,2,0.7874,1,1,0.4512
5,146,4,1,1,1,6,2,1,1,0.8192,2,2,0.5469
5,147,4,1,2,2,3,1,1,2,0.6288,2,2,0.6766
5,148,4,1,1,1,4,1,1,1,0.949,2,2,0.6767
5,149,4,1,1,2,2,1,0,1,0.7572,2,2,0.7409
5,150,4,1,1,1,5,2,1,1,0.6868,1,1,0.7985
5,151,4,1,1,1,1,2,1,1,0.4935,1,1,0.4773
5,152,4,1,1,2,4,1,0,1,0.81,1,1,0.7938
5,153,4,1,1,1,2,2,1,1,0.6807,2,2,0.5365
5,154,4,1,1,2,4,2,0,1,0.7464,2,2,0.5382
5,155,4,1,2,2,5,2,1,2,0.4803,2,2,0.464
5,156,4,1,1,1,3,1,1,1,0.6166,1,1,0.7282
5,157,4,1,2,1,3,1,0,2,0.8021,2,2,0.7218
5,158,4,1,2,2,2,1,1,2,0.8192,2,2,0.611
5,159,4,1,1,1,5,1,1,1,0.8782,2,2,0.67
5,160,4,1,2,1,5,2,0,2,1.0064,1,1,0.5422
5,161,4,1,2,1,4,2,0,2,0.752,1,1,0.6078
5,162,4,1,1,2,6,1,0,1,1.0788,2,2,0.4866
5,163,4,1,1,1,1,1,1,1,0.6155,2,2,0.6633
5,164,4,1,1,1,6,1,1,1,0.9357,2,2,0.5995
5,165,4,1,2,2,6,1,1,2,0.6747,2,2,0.5305
5,166,4,1,2,1,1,1,0,2,0.8044,2,2,0.8521
5,167,4,1,2,2,5,1,1,2,0.7443,2,2,0.4721
5,168,4,1,1,2,3,2,0,1,0.8048,1,1,0.7885
5,169,4,1,2,2,4,2,1,2,0.8793,2,2,0.6711
5,170,4,1,2,2,1,2,1,2,1.0075,2,2,0.6073
5,171,4,1,2,2,3,2,1,2,0.8223,1,1,0.5501
5,172,4,1,2,1,2,1,0,2,0.8879,1,1,0.6157
5,173,4,1,1,1,2,1,1,1,0.8189,1,1,0.6107
5,174,4,1,2,1,1,2,0,2,0.8022,2,2,0.786
5,175,4,1,1,1,4,2,1,1,0.8767,1,1,0.5405
5,176,4,1,1,2,5,1,0,1,0.9946,1,1,0.5304
5,177,4,1,1,2,1,2,0,1,0.6762,1,1,0.532
5,178,4,1,1,2,2,2,0,1,0.7418,1,1,0.4696
5,179,4,1,1,2,3,1,0,1,0.8023,1,1,0.6581
5,180,4,1,2,1,2,2,0,2,0.7502,2,2,0.542
5,181,4,1,2,1,6,1,0,2,1.0079,1,2,0.6716
5,182,4,1,2,2,1,1,1,2,0.7881,2,2,0.6439
5,183,4,1,2,1,6,2,0,2,0.7596,1,1,0.5514
5,184,4,1,1,2,5,2,0,1,0.6332,1,1,0.489
5,185,4,1,1,1,3,2,1,1,1.0136,1,1,0.5494
5,186,4,1,2,1,3,2,0,2,0.9042,1,1,0.696
5,187,4,1,2,1,5,1,0,2,0.7411,2,2,0.5329
5,188,4,1,2,2,6,2,1,2,0.6839,2,2,0.7317
5,189,4,1,1,2,1,1,0,7,7,1,7,7
5,190,4,1,1,2,6,2,0,1,0.8977,1,1,0.6255
5,191,4,1,2,2,4,1,1,2,0.817,1,1,0.6088
5,192,4,1,2,1,4,1,0,2,0.7597,2,2,0.8076
6,1,1,2,2,1,1,2,0,2,0.8247,1,1,1.0006
6,2,1,2,1,1,5,2,1,1,0.5595,2,1,0.6713
6,3,1,2,2,2,4,2,1,2,0.6597,2,1,0.9635
6,4,1,2,1,2,5,1,0,1,0.7217,1,1,0.7055
6,5,1,2,1,2,4,2,0,1,0.9949,2,2,0.7867
6,6,1,2,1,1,2,1,1,1,0.5692,2,2,0.681
6,7,1,2,2,1,5,2,0,2,0.6856,1,2,0.7975
6,8,1,2,2,1,3,1,0,1,0.5402,1,1,1.2914
6,9,1,2,1,2,2,1,0,1,0.632,1,1,0.6158
6,10,1,2,2,1,4,2,0,2,0.691,2,2,0.9308
6,11,1,2,2,1,5,1,0,2,0.6884,2,2,0.9281
6,12,1,2,2,2,3,1,1,2,0.6857,1,2,0.7335
6,13,1,2,1,1,3,2,1,1,0.5991,1,1,1.1589
6,14,1,2,1,1,6,2,1,1,0.6289,2,2,0.6127
6,15,1,2,2,1,1,1,0,2,0.6239,2,2,0.8637
6,16,1,2,2,2,2,1,1,2,0.5639,2,2,2.9156
6,17,1,2,2,1,2,2,0,2,0.6965,1,1,1.0003
6,18,1,2,2,1,4,1,0,2,0.7513,2,1,0.799
6,19,1,2,1,1,1,1,1,1,0.658,1,1,0.8978
6,20,1,2,2,1,2,1,0,2,0.6907,1,1,0.5465
6,21,1,2,1,2,1,1,0,1,0.8843,2,2,1.6361
6,22,1,2,2,2,4,1,1,2,0.6237,2,2,0.6715
6,23,1,2,1,2,1,2,0,1,0.6879,1,1,0.9917
6,24,1,2,2,2,2,2,1,2,0.6146,2,2,0.7264
6,25,1,2,1,2,2,2,0,1,0.62,1,1,0.6679
6,26,1,2,2,2,1,1,1,2,0.6202,1,1,0.604
6,27,1,2,1,2,6,1,0,1,0.5799,2,2,0.8837
6,28,1,2,1,1,6,1,1,1,0.6126,1,1,1.6204
6,29,1,2,2,1,6,2,0,2,0.7477,2,2,0.9875
6,30,1,2,1,1,5,1,1,1,0.6105,1,2,0.8503
6,31,1,2,1,2,5,2,0,1,0.5982,1,1,0.838
6,32,1,2,1,1,3,1,1,1,0.5617,1,1,0.9295
6,33,1,2,2,2,1,2,1,2,0.5591,2,2,0.8628
6,34,1,2,1,2,6,2,0,1,0.691,2,2,0.7387
6,35,1,2,2,2,5,2,1,2,0.5566,1,2,0.8604
6,36,1,2,1,1,1,2,1,1,0.5965,2,2,0.6443
6,37,1,2,2,2,5,1,1,2,0.504,1,1,1.6398
6,38,1,2,2,2,3,2,1,2,0.5634,2,2,0.6752
6,39,1,2,1,1,2,2,1,1,0.5636,2,2,0.9314
6,40,1,2,1,2,3,2,0,1,0.6132,1,1,0.981
6,41,1,2,2,2,6,1,1,2,0.6797,1,1,1.3035
6,42,1,2,1,2,3,1,0,1,0.6323,2,2,0.6801
6,43,1,2,2,1,3,2,0,2,0.7605,2,2,0.7443
6,44,1,2,2,2,6,2,1,2,0.7541,2,1,1.0579
6,45,1,2,2,1,6,1,0,2,0.7221,1,1,0.8338
6,46,1,2,1,1,4,1,1,1,0.6973,1,1,0.6171
6,47,1,2,1,2,4,1,0,1,0.6165,1,1,0.7283
6,48,1,2,1,1,4,2,1,1,0.5748,2,2,0.7506
6,49,2,1,2,2,1,1,1,2,0.6895,2,2,0.4813
6,50,2,1,1,2,1,1,0,1,0.7147,2,2,0.5705
6,51,2,1,1,1,2,1,1,1,0.5648,2,2,0.5486
6,52,2,1,1,1,2,2,1,1,0.5664,2,2,0.4862
6,53,2,1,1,2,2,1,0,1,0.4348,2,2,0.6746
6,54,2,1,2,2,3,2,1,2,0.6153,2,2,0.4711
6,55,2,1,2,2,4,1,1,2,0.5124,1,7,7
6,56,2,1,1,1,3,1,1,1,0.6039,1,1,0.7157
6,57,2,1,1,2,3,2,0,1,0.4931,1,1,0.4768
6,58,2,1,2,2,2,2,1,2,0.5653,2,2,0.485
6,59,2,1,1,2,3,1,0,1,0.5617,1,1,0.4175
6,60,2,1,2,1,1,2,0,2,0.8208,1,1,0.4846
6,61,2,1,1,1,5,1,1,1,0.5494,1,1,0.4052
6,62,2,1,2,1,6,2,0,2,0.5812,1,1,0.501
6,63,2,1,2,1,1,1,0,2,0.4901,1,1,0.4739
6,64,2,1,1,1,3,2,1,1,0.6433,1,1,0.499
6,65,2,1,1,2,6,2,0,1,0.628,1,1,0.4197
6,66,2,1,1,1,6,1,1,1,0.567,1,1,0.4868
6,67,2,1,1,2,4,2,0,1,0.6914,1,1,0.5472
6,68,2,1,2,2,5,1,1,2,0.5011,2,2,0.6769
6,69,2,1,1,1,5,2,1,1,0.4895,2,2,0.4733
6,70,2,1,2,2,4,2,1,2,0.55,2,2,0.5337
6,71,2,1,2,1,4,1,0,2,0.6156,1,1,0.6634
6,72,2,1,2,1,2,1,0,2,0.7556,1,1,0.4193
6,73,2,1,1,1,4,1,1,1,0.6306,2,2,0.4864
6,74,2,1,2,2,6,1,1,2,0.4991,1,1,0.4828
6,75,2,1,2,2,5,2,1,2,0.4955,2,2,0.4793
6,76,2,1,2,1,6,1,0,2,0.556,1,1,0.4757
6,77,2,1,2,1,4,2,0,2,0.4767,2,2,0.4604
6,78,2,1,1,2,2,2,0,1,0.6129,2,2,0.4686
6,79,2,1,2,2,6,2,1,2,0.5571,2,2,0.6689
6,80,2,1,1,2,1,2,0,1,0.761,1,1,0.5528
6,81,2,1,1,1,6,2,1,1,0.4949,2,2,0.6067
6,82,2,1,2,1,2,2,0,2,0.7459,1,1,0.4737
6,83,2,1,2,2,2,1,1,2,0.5622,2,2,0.4819
6,84,2,1,2,2,1,2,1,2,0.4828,1,1,0.4026
6,85,2,1,2,1,5,2,0,2,0.4506,1,1,0.4984
6,86,2,1,2,1,3,2,0,2,0.6155,1,1,0.4073
6,87,2,1,1,1,4,2,1,2,0.5832,2,2,0.5952
6,88,2,1,2,2,3,1,1,2,0.63,2,2,0.8058
6,89,2,1,1,2,5,2,0,1,0.6288,1,1,0.7405
6,90,2,1,1,2,4,1,0,1,0.4944,2,2,0.8621
6,91,2,1,1,1,1,1,1,1,0.4983,2,2,0.4821
6,92,2,1,2,1,3,1,0,2,0.739,1,1,0.9788
6,93,2,1,1,2,5,1,0,1,0.6135,2,2,0.6613
6,94,2,1,2,1,5,1,0,2,0.6424,2,2,0.4982
6,95,2,1,1,1,1,2,1,1,0.6271,2,2,0.4189
6,96,2,1,1,2,6,1,0,1,0.5021,1,1,0.6779
6,97,3,1,1,2,1,2,0,1,0.587,1,1,0.6348
6,98,3,1,1,2,6,1,0,1,0.5585,2,2,0.4782
6,99,3,1,1,2,1,1,0,1,0.4387,2,2,0.4865
6,100,3,1,2,2,1,2,1,2,0.5514,2,2,0.5992
6,101,3,1,1,1,3,1,1,1,0.6744,2,2,0.4662
6,102,3,1,2,2,2,2,1,2,0.5546,1,1,0.5384
6,103,3,1,1,2,5,1,0,1,0.632,2,2,0.5518
6,104,3,1,1,1,4,2,1,1,0.6219,1,1,0.6056
6,105,3,1,1,2,5,2,0,1,0.5646,1,1,0.6124
6,106,3,1,2,1,5,2,0,2,0.6237,2,2,0.6715
6,107,3,1,1,2,2,1,0,1,0.6003,1,1,0.4561
6,108,3,1,1,1,3,2,1,1,0.6255,2,2,0.4173
6,109,3,1,2,2,5,2,1,2,0.4888,1,1,0.4086
6,110,3,1,1,1,5,2,1,1,0.5558,2,2,0.4756
6,111,3,1,1,1,6,1,1,1,0.4361,1,1,0.5478
6,112,3,1,1,2,4,1,0,1,0.5657,2,2,0.4215
6,113,3,1,1,1,1,2,1,1,0.5047,1,1,0.6805
6,114,3,1,2,2,4,1,1,2,0.6969,1,1,0.4887
6,115,3,1,2,2,6,2,1,2,0.6176,1,1,0.4734
6,116,3,1,2,1,3,2,0,2,0.7421,1,1,0.4698
6,117,3,1,2,2,6,1,1,2,0.651,2,2,0.4428
6,118,3,1,2,1,1,2,0,2,0.7467,2,2,0.4745
6,119,3,1,2,1,6,2,0,2,0.6152,1,1,0.407
6,120,3,1,2,1,5,1,0,2,0.6182,1,1,0.4741
6,121,3,1,2,1,6,1,0,2,0.5794,2,2,1.0112
6,122,3,1,2,1,1,1,0,2,0.5584,2,2,0.7341
6,123,3,1,1,2,3,2,0,1,0.6277,1,1,0.5475
6,124,3,1,2,1,2,2,0,2,0.6294,2,2,0.6771
6,125,3,1,1,1,1,1,1,1,0.5656,1,2,0.4213
6,126,3,1,2,1,2,1,0,2,0.7326,1,1,0.5244
6,127,3,1,1,1,6,2,1,1,0.618,1,1,0.6658
6,128,3,1,1,2,4,2,0,1,0.8102,2,2,0.5381
6,129,3,1,1,2,2,2,0,1,0.6198,2,2,0.4756
6,130,3,1,2,2,5,1,1,2,0.645,2,2,0.5008
6,131,3,1,2,1,4,1,0,2,0.6819,1,1,0.4737
6,132,3,1,1,1,4,1,1,1,0.6313,1,1,1.0631
6,133,3,1,1,2,3,1,0,1,0.6154,1,1,0.5353
6,134,3,1,2,2,4,2,1,2,0.6289,2,2,0.4846
6,135,3,1,2,2,3,2,1,2,0.4973,1,1,0.7371
6,136,3,1,2,2,1,1,1,2,0.6947,2,2,0.4864
6,137,3,1,2,2,3,1,1,2,0.6272,2,2,0.6109
6,138,3,1,1,2,6,2,0,1,0.7501,2,2,0.5419
6,139,3,1,1,1,2,1,1,1,0.6238,2,2,0.7355
6,140,3,1,2,1,3,1,0,2,0.7101,1,1,0.5018
6,141,3,1,1,1,5,1,1,1,0.555,1,1,1.1788
6,142,3,1,1,1,2,2,1,1,0.6135,2,2,0.6613
6,143,3,1,2,1,4,2,0,2,0.6137,1,1,0.4695
6,144,3,1,2,2,2,1,1,2,0.6101,2,2,0.4659
6,145,4,2,2,2,4,1,1,2,0.5919,2,2,0.7038
6,146,4,2,1,1,1,2,1,1,0.5686,1,1,0.6164
6,147,4,2,2,2,4,2,1,2,0.6277,1,1,0.6114
6,148,4,2,2,1,1,1,0,2,0.6226,2,2,0.5424
6,149,4,2,1,1,4,2,1,1,0.9443,1,1,0.8
6,150,4,2,2,2,6,2,1,2,0.495,2,2,0.6708
6,151,4,2,2,2,5,2,1,2,0.6115,2,2,0.7233
6,152,4,2,2,1,5,2,0,2,0.6168,1,1,0.9206
6,153,4,2,1,1,1,1,1,2,0.6142,1,1,0.7188
6,154,4,2,2,2,3,2,1,2,0.6124,1,1,0.6602
6,155,4,2,1,2,4,2,0,1,0.7693,2,2,0.8171
6,156,4,2,2,2,6,1,1,2,0.5931,2,1,0.6408
6,157,4,2,2,1,5,1,0,2,0.7925,2,2,0.7763
6,158,4,2,2,2,2,2,1,2,0.6868,2,2,0.9906
6,159,4,2,2,2,1,2,1,2,0.5496,1,1,0.8534
6,160,4,2,1,1,3,2,1,1,0.7573,2,2,0.8691
6,161,4,2,2,1,3,1,0,2,0.7612,1,1,0.873
6,162,4,2,1,2,6,1,0,1,0.6254,2,2,0.6092
6,163,4,2,2,1,4,1,0,2,0.5851,1,1,1.0809
6,164,4,2,1,1,4,1,1,1,0.6738,1,2,0.6576
6,165,4,2,2,2,1,1,1,2,0.582,1,1,0.7578
6,166,4,2,1,1,2,1,1,1,0.616,1,1,0.6638
6,167,4,2,1,2,1,1,0,1,0.709,2,2,0.8847
6,168,4,2,1,1,6,1,1,1,0.6254,1,1,0.6091
6,169,4,2,1,2,4,1,0,1,0.5681,2,2,0.808
6,170,4,2,1,2,3,1,0,1,0.5669,2,2,0.7427
6,171,4,2,1,1,3,1,1,1,0.4325,2,2,0.7363
6,172,4,2,2,1,1,2,0,2,0.6299,2,2,0.7417
6,173,4,2,1,1,2,2,1,1,0.6875,1,1,1.0553
6,174,4,2,1,2,2,2,0,1,0.5554,2,2,0.8592
6,175,4,2,2,2,3,1,1,2,0.6638,2,2,0.6476
6,176,4,2,1,2,1,2,0,1,0.6758,2,2,0.5956
6,177,4,2,1,1,5,2,1,1,0.6473,1,1,0.567
6,178,4,2,1,1,6,2,1,1,0.5496,1,1,1.0454
6,179,4,2,1,2,3,2,0,1,0.5573,1,1,1.0531
6,180,4,2,2,2,5,1,1,2,0.757,1,2,1.1888
6,181,4,2,2,2,2,1,1,2,0.5955,2,1,0.7073
6,182,4,2,1,2,6,2,0,1,0.5964,1,1,0.7082
6,183,4,2,2,1,6,2,0,2,0.6253,2,2,0.6091
6,184,4,2,2,1,2,1,0,2,0.8241,1,1,0.8719
6,185,4,2,2,1,3,2,0,2,0.6883,2,2,0.608
6,186,4,2,1,1,5,1,1,1,0.6193,1,1,0.9231
6,187,4,2,2,1,6,1,0,2,0.5526,2,2,0.8564
6,188,4,2,1,2,5,1,0,1,0.6846,2,2,0.7964
6,189,4,2,2,1,2,2,0,2,0.6193,2,1,0.9231
6,190,4,2,1,2,2,1,0,1,0.6527,1,1,0.6365
6,191,4,2,1,2,5,2,0,1,0.7404,1,1,0.7882
6,192,4,2,2,1,4,2,0,2,0.687,1,1,0.8628
7,1,1,1,1,1,5,1,1,1,0.8294,2,2,1.0692
7,2,1,1,2,2,3,1,1,2,0.4413,2,2,0.6171
7,3,1,1,2,2,6,2,1,2,0.9483,2,2,0.5481
7,4,1,1,2,1,6,1,0,2,0.7581,1,1,0.5497
7,5,1,1,1,1,5,2,1,1,0.8236,1,1,0.6794
7,6,1,1,1,1,2,1,1,1,1.1843,1,1,0.72
7,7,1,1,2,2,5,1,1,2,0.4621,2,2,0.4459
7,8,1,1,1,2,1,1,0,1,0.9301,1,2,0.6579
7,9,1,1,1,2,3,1,0,1,0.85,1,1,0.3858
7,10,1,1,1,2,6,1,0,1,0.5044,2,2,0.5522
7,11,1,1,1,1,3,1,1,1,0.6862,2,2,0.478
7,12,1,1,1,2,4,2,0,1,0.7585,2,2,0.4863
7,13,1,1,1,2,4,1,0,1,0.7549,2,2,1.4427
7,14,1,1,1,1,1,2,1,1,0.4383,2,2,0.4221
7,15,1,1,2,2,5,2,1,1,0.5694,2,2,0.6571
7,16,1,1,2,1,5,1,0,2,0.5051,2,2,0.6169
7,17,1,1,2,1,2,2,0,2,0.8841,1,1,0.8039
7,18,1,1,2,1,1,1,0,1,0.5628,1,1,0.9183
7,19,1,1,1,2,2,1,0,1,0.9319,1,1,0.4677
7,20,1,1,1,2,5,1,0,1,0.9519,2,2,0.5517
7,21,1,1,2,2,1,2,1,2,0.6857,1,1,0.7975
7,22,1,1,2,1,1,2,0,2,0.6963,1,2,0.552
7,23,1,1,1,2,5,2,0,1,0.8384,1,1,0.8862
7,24,1,1,1,1,3,2,1,1,0.9468,1,1,0.4186
7,25,1,1,2,2,4,2,1,2,0.6181,1,1,0.5378
7,26,1,1,1,1,1,1,1,1,0.6837,1,1,0.4115
7,27,1,1,1,1,2,2,1,1,0.739,1,1,0.5309
7,28,1,1,1,1,6,2,1,1,0.6009,2,1,0.3926
7,29,1,1,1,2,3,2,0,1,0.7157,1,1,0.5074
7,30,1,1,2,2,3,2,1,2,0.6128,2,2,0.5966
7,31,1,1,2,1,6,2,0,1,0.5556,1,1,0.5911
7,32,1,1,2,1,4,2,0,2,0.5619,1,1,0.6096
7,33,1,1,2,2,1,1,1,2,0.6849,1,1,0.4767
7,34,1,1,2,2,2,2,1,2,0.6931,2,2,0.4849
7,35,1,1,2,1,5,2,0,2,0.7536,1,1,0.6733
7,36,1,1,1,1,4,2,1,1,1.0098,1,1,0.5455
7,37,1,1,1,1,4,1,1,1,0.8194,1,1,0.7392
7,38,1,1,1,2,2,2,0,1,0.6967,1,1,0.4885
7,39,1,1,1,1,6,1,1,1,0.9492,2,2,1.509
7,40,1,1,2,1,4,1,0,2,0.6142,2,2,0.598
7,41,1,1,2,2,6,1,1,2,0.6498,2,2,0.5695
7,42,1,1,1,2,1,2,0,7,7,1,1,1.0721
7,43,1,1,1,2,6,2,0,1,0.8047,2,2,0.5965
7,44,1,1,2,2,2,1,1,2,0.7593,2,2,0.743
7,45,1,1,2,1,2,1,0,2,0.9449,2,2,0.6086
7,46,1,1,2,2,4,1,1,2,0.6957,2,2,0.5515
7,47,1,1,2,1,3,2,0,2,0.7613,2,2,0.6811
7,48,1,1,2,1,3,1,0,2,0.6504,2,2,0.6982
7,49,2,2,1,2,6,2,0,1,1.0298,2,2,1.9736
7,50,2,2,1,2,4,1,0,1,0.8577,2,2,0.9694
7,51,2,2,1,2,6,1,0,1,0.9359,2,2,0.9197
7,52,2,2,2,1,5,2,0,2,0.817,1,1,0.7368
7,53,2,2,2,2,2,2,1,2,0.8864,2,2,0.8702
7,54,2,2,1,1,4,1,1,1,0.6866,2,2,1.1184
7,55,2,2,2,1,2,2,0,2,0.8679,2,2,0.8517
7,56,2,2,1,2,2,1,0,1,0.8365,1,1,0.7563
7,57,2,2,1,2,4,2,0,1,0.6146,2,2,0.7904
7,58,2,2,1,1,2,2,1,1,0.6891,1,1,0.6729
7,59,2,2,1,1,6,2,1,1,0.7534,1,2,1.1212
7,60,2,2,1,2,2,2,0,1,0.6625,1,1,0.7103
7,61,2,2,1,1,3,2,1,1,0.5634,2,1,0.8031
7,62,2,2,2,2,3,2,1,2,0.7144,1,2,0.8903
7,63,2,2,2,1,4,2,0,2,0.847,2,1,1.3428
7,64,2,2,2,1,6,2,0,2,0.7938,2,1,0.8415
7,65,2,2,2,2,6,1,1,2,0.9735,1,1,1.1493
7,66,2,2,2,2,4,2,1,2,0.695,1,1,0.6148
7,67,2,2,1,1,1,2,1,1,0.7541,1,1,0.6099
7,68,2,2,1,2,5,2,0,1,0.6329,2,2,0.6806
7,69,2,2,2,2,1,2,1,2,0.6971,2,2,0.8088
7,70,2,2,2,2,6,2,1,2,0.701,1,2,0.6208
7,71,2,2,1,1,5,2,1,1,0.9123,1,1,0.7681
7,72,2,2,1,2,1,1,0,1,0.9346,1,1,0.7904
7,73,2,2,2,2,2,1,1,2,0.5611,2,1,1.1209
7,74,2,2,1,1,3,1,1,1,0.9823,1,7,7
7,75,2,2,1,1,6,1,1,1,0.7486,2,2,0.7323
7,76,2,2,1,2,5,1,0,1,0.6259,1,2,0.6737
7,77,2,2,2,1,6,1,0,2,0.7783,1,1,0.5701
7,78,2,2,2,2,3,1,1,2,0.7852,1,1,0.5769
7,79,2,2,2,1,5,1,0,2,0.6757,2,1,1.1075
7,80,2,2,1,1,4,2,1,1,0.7189,2,2,0.5746
7,81,2,2,1,2,1,2,0,1,0.569,1,1,0.4888
7,82,2,2,2,1,1,1,0,1,0.5654,2,1,0.5891
7,83,2,2,2,1,2,1,0,2,0.7879,2,1,0.4517
7,84,2,2,1,1,1,1,1,1,0.7917,1,1,0.9675
7,85,2,2,2,1,3,1,0,2,0.742,1,1,1.1737
7,86,2,2,2,2,5,1,1,2,0.6085,2,2,0.7842
7,87,2,2,2,1,1,2,0,2,0.619,2,2,0.8588
7,88,2,2,2,1,4,1,0,2,0.8032,2,1,1.299
7,89,2,2,2,1,3,2,0,2,0.7278,1,1,0.8396
7,90,2,2,2,2,4,1,1,2,0.4993,2,2,0.739
7,91,2,2,2,2,5,2,1,2,0.7606,1,1,1.1284
7,92,2,2,1,1,5,1,1,1,0.7382,1,1,0.722
7,93,2,2,1,2,3,2,0,1,0.6156,2,2,0.9833
7,94,2,2,1,1,2,1,1,1,0.8101,1,1,1.1779
7,95,2,2,2,2,1,1,1,2,0.6126,2,1,0.7884
7,96,2,2,1,2,3,1,0,1,0.7871,1,1,0.9629
7,97,3,2,1,1,5,1,1,1,0.7916,2,1,1.0953
7,98,3,2,2,2,2,1,1,2,0.6602,1,1,0.836
7,99,3,2,1,1,6,1,1,1,0.7399,2,2,0.7237
7,100,3,2,1,2,3,1,0,1,0.693,2,1,0.6769
7,101,3,2,2,2,5,2,1,2,0.6822,1,1,0.858
7,102,3,2,2,1,3,1,0,2,0.6744,1,1,0.6581
7,103,3,2,2,1,5,2,0,2,0.6106,1,1,0.6584
7,104,3,2,1,2,4,2,0,1,0.6865,1,1,0.6703
7,105,3,2,1,2,6,2,0,1,0.5757,2,1,1.0074
7,106,3,2,2,2,3,2,1,2,0.7304,2,2,0.7782
7,107,3,2,1,2,2,2,0,1,0.6247,2,2,0.6725
7,108,3,2,1,1,3,2,1,1,0.6772,2,1,1.4289
7,109,3,2,2,2,5,1,1,2,0.7048,1,2,0.9446
7,110,3,2,1,1,2,1,1,1,0.6793,2,1,0.5991
7,111,3,2,2,2,4,1,1,2,0.9142,1,1,0.8979
7,112,3,2,1,1,4,2,1,1,0.6268,2,2,0.6106
7,113,3,2,2,1,2,1,0,2,0.7145,1,1,1.2103
7,114,3,2,2,1,4,1,0,2,0.6973,2,2,0.809
7,115,3,2,1,1,5,2,1,1,0.632,1,1,0.6798
7,116,3,2,2,1,1,2,0,2,0.6844,1,1,1.1802
7,117,3,2,2,1,5,1,0,2,0.6959,1,2,1.7037
7,118,3,2,1,2,5,2,0,1,0.6096,1,1,0.7854
7,119,3,2,1,2,2,1,0,1,0.6842,2,2,0.796
7,120,3,2,1,2,1,1,0,1,0.6072,1,2,1.295
7,121,3,2,2,1,6,1,0,2,0.648,1,1,0.7598
7,122,3,2,1,1,1,2,1,1,0.6181,2,2,1.1139
7,123,3,2,2,1,3,2,0,2,0.631,2,2,0.7427
7,124,3,2,2,2,1,2,1,2,0.6245,2,2,1.3123
7,125,3,2,1,2,6,1,0,1,0.6294,2,1,0.6132
7,126,3,2,2,1,6,2,0,2,0.5324,2,2,0.8362
7,127,3,2,2,1,4,2,0,2,0.7519,2,2,0.6077
7,128,3,2,1,1,1,1,1,1,0.5027,2,1,1.0625
7,129,3,2,1,2,3,2,0,1,0.5633,2,1,1.0591
7,130,3,2,1,1,4,1,1,1,0.5364,1,1,0.9682
7,131,3,2,2,2,4,2,1,2,0.6147,2,2,1.2385
7,132,3,2,1,2,4,1,0,1,0.6666,1,1,0.9704
7,133,3,2,2,1,1,1,0,1,0.5934,1,1,0.8495
7,134,3,2,2,2,3,1,1,2,0.6358,2,1,1.6436
7,135,3,2,1,1,3,1,1,1,0.6672,2,2,0.651
7,136,3,2,1,1,2,2,1,1,0.6269,1,1,0.6747
7,137,3,2,2,2,6,2,1,2,0.5514,2,2,0.8552
7,138,3,2,1,1,6,2,1,1,0.6951,1,1,1.2549
7,139,3,2,2,1,2,2,0,2,0.6947,1,1,0.9345
7,140,3,2,1,2,5,1,0,1,0.5641,1,1,0.9959
7,141,3,2,1,2,1,2,0,2,0.5548,1,1,0.9743
7,142,3,2,2,2,1,1,1,2,0.6209,1,1,0.7966
7,143,3,2,2,2,2,2,1,2,0.6196,2,2,0.5394
7,144,3,2,2,2,6,1,1,2,0.5572,1,1,0.861
7,145,4,1,2,2,4,1,1,2,0.5922,1,1,0.448
7,146,4,1,1,2,2,2,0,1,0.7807,2,2,0.5085
7,147,4,1,1,1,4,2,1,1,0.4976,2,2,0.6094
7,148,4,1,1,2,1,1,0,1,0.6964,1,1,0.4882
7,149,4,1,1,2,6,1,0,1,0.5648,1,1,0.4206
7,150,4,1,2,2,3,2,1,2,0.5679,1,1,0.6157
7,151,4,1,1,2,5,2,0,1,0.5629,1,1,0.4827
7,152,4,1,1,1,4,1,1,1,0.5476,2,2,0.4674
7,153,4,1,2,1,1,1,0,2,0.7478,1,1,0.4116
7,154,4,1,2,2,6,2,1,2,0.5471,1,1,0.4029
7,155,4,1,1,1,1,1,1,1,0.6142,1,1,0.534
7,156,4,1,2,2,1,2,1,2,0.5687,2,2,0.4245
7,157,4,1,1,2,6,2,0,1,0.4842,1,1,0.468
7,158,4,1,1,2,4,1,0,1,0.6962,2,2,0.424
7,159,4,1,2,1,6,1,0,2,0.6235,1,1,0.4793
7,160,4,1,1,1,2,1,1,1,0.5678,2,2,0.4875
7,161,4,1,2,2,1,1,1,2,0.5002,2,2,0.484
7,162,4,1,2,1,6,2,0,1,0.4966,1,1,0.463
7,163,4,1,2,2,3,1,1,2,0.4991,1,1,0.4189
7,164,4,1,1,1,2,2,1,1,0.4904,2,2,0.6662
7,165,4,1,2,2,5,1,1,2,0.5024,1,1,0.4222
7,166,4,1,1,2,2,1,0,1,0.6504,2,2,0.5062
7,167,4,1,2,1,2,2,0,2,0.6755,2,1,0.7873
7,168,4,1,2,1,3,2,0,2,0.5066,2,2,0.4263
7,169,4,1,2,1,2,1,0,2,0.6141,1,1,0.5978
7,170,4,1,1,2,3,1,0,1,0.5046,2,2,0.4244
7,171,4,1,2,2,2,2,1,2,0.6239,1,1,0.5437
7,172,4,1,1,1,1,2,1,1,0.4975,1,1,0.4173
7,173,4,1,1,1,5,1,1,1,0.6808,2,2,0.4086
7,174,4,1,1,1,3,1,1,1,0.6316,1,1,0.4874
7,175,4,1,2,1,4,1,0,2,0.5523,2,2,0.4721
7,176,4,1,1,2,3,2,0,1,0.6128,2,2,0.4685
7,177,4,1,1,1,5,2,1,1,0.5217,2,2,0.5695
7,178,4,1,2,1,1,2,0,2,0.616,1,1,0.4718
7,179,4,1,2,1,4,2,0,2,0.6125,2,2,0.9803
7,180,4,1,1,1,3,2,1,1,0.487,2,2,0.5348
7,181,4,1,1,2,4,2,0,1,0.5291,2,2,0.4489
7,182,4,1,2,2,6,1,1,2,0.5608,2,2,0.4166
7,183,4,1,1,2,1,2,0,2,0.5521,1,1,0.6516
7,184,4,1,2,2,2,1,1,2,0.6275,2,2,0.5473
7,185,4,1,1,1,6,2,1,7,7,1,2,0.7012
7,186,4,1,1,1,6,1,1,1,0.6279,2,2,0.8677
7,187,4,1,2,2,5,2,1,2,0.6135,2,2,0.4693
7,188,4,1,2,2,4,2,1,2,0.5459,1,1,0.5298
7,189,4,1,2,1,5,2,0,2,0.5932,1,1,0.513
7,190,4,1,2,1,5,1,0,2,0.5544,1,1,0.4742
7,191,4,1,1,2,5,1,0,1,0.5508,2,2,0.5986
7,192,4,1,2,1,3,1,0,2,0.6739,1,1,0.5936
8,1,1,2,2,2,2,2,1,2,0.785,2,2,0.6407
8,2,1,2,2,2,4,2,1,2,0.7263,2,2,0.6461
8,3,1,2,2,1,6,1,0,2,0.8023,2,1,0.85
8,4,1,2,2,1,3,2,0,2,0.726,2,2,0.6458
8,5,1,2,1,2,3,2,0,1,0.6857,2,1,0.5415
8,6,1,2,2,1,2,1,0,1,0.6594,1,7,7
8,7,1,2,1,2,1,1,0,1,0.9475,1,1,0.4833
8,8,1,2,2,2,4,1,1,2,0.6879,1,1,0.6077
8,9,1,2,1,2,3,1,0,1,0.8919,1,1,0.5557
8,10,1,2,2,1,2,2,0,2,0.742,2,2,0.5978
8,11,1,2,1,1,6,2,1,1,0.6965,1,1,1.9603
8,12,1,2,1,1,3,2,1,1,0.9032,2,1,0.567
8,13,1,2,1,2,2,1,0,1,0.754,1,1,0.6738
8,14,1,2,2,1,4,2,0,2,0.7542,2,1,0.546
8,15,1,2,2,1,5,2,0,2,0.7396,2,2,0.6594
8,16,1,2,2,2,1,2,1,2,0.7516,1,1,0.6073
8,17,1,2,1,1,5,1,1,1,0.7113,2,1,0.6951
8,18,1,2,1,1,5,2,1,1,0.66,1,1,0.5157
8,19,1,2,1,2,6,2,0,1,0.6329,2,1,0.5527
8,20,1,2,2,1,4,1,0,2,0.7868,2,2,0.7065
8,21,1,2,2,1,6,2,0,2,0.6354,1,1,0.6192
8,22,1,2,2,2,2,1,1,1,0.6304,1,1,0.5953
8,23,1,2,1,1,2,1,1,1,0.6941,2,2,0.5499
8,24,1,2,2,2,6,2,1,2,0.6957,2,1,0.6795
8,25,1,2,1,1,2,2,1,1,0.7202,1,2,0.8959
8,26,1,2,1,1,6,1,1,1,0.6609,1,1,0.7086
8,27,1,2,1,1,1,2,1,1,0.6897,1,2,0.8655
8,28,1,2,1,1,4,2,1,1,0.7297,1,2,1.0975
8,29,1,2,1,2,2,2,0,1,0.6741,2,2,0.7859
8,30,1,2,1,2,1,2,0,1,0.6847,1,1,0.5404
8,31,1,2,2,1,1,2,0,2,0.8952,2,2,0.815
8,32,1,2,1,2,5,2,0,1,0.6145,2,2,0.6622
8,33,1,2,1,2,5,1,0,1,0.8706,2,1,1.1744
8,34,1,2,2,2,5,2,1,2,0.7327,2,2,0.7805
8,35,1,2,1,2,4,1,0,1,0.755,1,1,0.9308
8,36,1,2,1,1,1,1,1,1,0.6766,1,1,0.5963
8,37,1,2,2,2,3,2,1,2,0.6429,1,1,0.6267
8,38,1,2,1,2,6,1,0,2,0.8821,1,1,0.7802
8,39,1,2,2,1,1,1,0,2,0.6907,2,2,0.7385
8,40,1,2,2,2,1,1,1,2,0.7483,2,1,0.6041
8,41,1,2,2,1,5,1,0,2,0.7271,1,1,0.7109
8,42,1,2,2,2,6,1,1,2,0.6398,1,1,0.6876
8,43,1,2,1,2,4,2,0,1,0.8842,1,1,0.676
8,44,1,2,1,1,4,1,1,1,0.6924,1,1,0.6762
8,45,1,2,1,1,3,1,1,1,0.6926,1,1,0.6124
8,46,1,2,2,2,5,1,1,2,0.8796,2,2,0.8634
8,47,1,2,2,1,3,1,0,2,0.8718,2,2,0.7276
8,48,1,2,2,2,3,1,1,2,0.8654,2,2,0.6572
8,49,2,1,2,2,5,2,1,2,0.8201,2,2,0.5479
8,50,2,1,1,2,5,2,0,1,0.713,1,1,0.5047
8,51,2,1,1,2,2,1,0,1,0.6859,1,1,0.4777
8,52,2,1,2,2,6,2,1,2,0.6301,1,1,0.5499
8,53,2,1,2,2,5,1,1,2,0.7715,1,1,0.4993
8,54,2,1,1,1,6,1,1,1,0.7849,1,1,0.7047
8,55,2,1,2,1,2,1,0,2,0.9587,1,1,0.8145
8,56,2,1,1,1,2,2,1,1,0.6779,2,2,0.6617
8,57,2,1,2,2,3,1,1,2,0.7539,2,2,0.4817
8,58,2,1,2,1,1,2,0,2,0.9424,1,1,0.5421
8,59,2,1,2,1,2,2,0,2,0.88,2,2,0.6078
8,60,2,1,2,2,6,1,1,2,0.7588,2,2,0.5506
8,61,2,1,2,1,4,1,0,2,0.8126,2,2,0.6044
8,62,2,1,2,1,6,1,0,2,0.8077,1,1,0.5355
8,63,2,1,1,2,1,1,0,1,0.8093,1,1,0.6011
8,64,2,1,2,1,4,2,0,2,0.9323,2,2,0.5961
8,65,2,1,2,1,3,1,0,2,0.7758,2,2,0.5036
8,66,2,1,2,2,1,2,1,2,0.7083,2,2,0.5
8,67,2,1,1,1,3,2,1,1,0.821,1,1,0.6127
8,68,2,1,1,1,5,2,1,1,0.752,1,1,0.6718
8,69,2,1,2,2,2,2,1,2,0.9964,1,1,0.8522
8,70,2,1,2,2,2,1,1,2,0.8253,1,1,0.8091
8,71,2,1,1,2,4,1,0,1,0.8123,1,1,0.5401
8,72,2,1,1,1,6,2,1,1,0.7146,2,2,0.6984
8,73,2,1,1,2,5,1,0,1,0.8193,2,2,0.5471
8,74,2,1,2,2,3,2,1,1,0.7569,2,2,1.2324
8,75,2,1,2,1,5,2,0,2,0.7075,1,1,0.6273
8,76,2,1,1,2,3,2,0,1,1.063,2,2,0.7268
8,77,2,1,1,2,3,1,0,1,0.8933,2,2,0.4931
8,78,2,1,1,2,2,2,0,1,0.8023,1,1,1.234
8,79,2,1,1,1,2,1,1,1,0.866,2,2,0.8497
8,80,2,1,2,2,1,1,1,2,1.0736,1,1,0.6094
8,81,2,1,2,2,4,1,1,2,1.0282,1,1,0.628
8,82,2,1,1,1,1,1,1,1,0.6915,2,2,0.6113
8,83,2,1,1,1,4,1,1,1,0.9425,2,2,0.6063
8,84,2,1,2,2,4,2,1,2,1.0015,2,2,0.6013
8,85,2,1,2,1,1,1,0,2,0.8045,2,2,0.5323
8,86,2,1,1,2,4,2,0,1,0.8988,2,2,0.6266
8,87,2,1,2,1,6,2,0,2,1.0101,1,1,0.5459
8,88,2,1,1,1,1,2,1,1,0.8197,2,2,0.4835
8,89,2,1,2,1,3,2,0,2,1.3282,2,2,0.608
8,90,2,1,1,2,6,1,0,1,1.015,1,2,0.4868
8,91,2,1,1,1,5,1,1,1,0.8554,2,2,0.5192
8,92,2,1,1,1,4,2,1,1,0.7695,1,1,0.5613
8,93,2,1,1,2,1,2,0,1,0.6837,1,1,0.4754
8,94,2,1,1,2,6,2,0,1,0.7963,1,1,0.5881
8,95,2,1,2,1,5,1,0,2,0.7509,1,1,0.4787
8,96,2,1,1,1,3,1,1,1,0.8989,2,2,0.6906
8,97,3,1,1,2,1,2,0,1,0.8599,1,1,0.4597
8,98,3,1,1,2,1,1,0,1,0.8276,2,2,0.4914
8,99,3,1,1,2,6,1,0,1,0.7601,1,1,0.5519
8,100,3,1,2,2,4,1,1,2,0.6742,1,1,0.466
8,101,3,1,1,2,2,2,0,1,0.8104,1,1,0.4102
8,102,3,1,1,1,1,2,1,1,0.8135,2,2,0.4772
8,103,3,1,2,2,4,2,1,2,0.8856,1,1,0.4854
8,104,3,1,2,2,5,2,1,2,0.7541,2,2,0.6099
8,105,3,1,1,2,4,2,0,2,0.6329,2,2,0.5338
8,106,3,1,1,2,5,1,0,1,0.8834,2,2,0.5472
8,107,3,1,1,1,2,1,1,1,0.8092,2,2,0.473
8,108,3,1,1,1,3,1,1,1,0.6137,1,1,0.4055
8,109,3,1,1,1,4,2,1,1,0.6168,2,2,0.4725
8,110,3,1,1,1,5,1,1,1,0.561,1,1,0.4807
8,111,3,1,1,1,3,2,1,1,0.7259,1,1,0.5176
8,112,3,1,1,2,3,1,0,1,0.687,2,2,0.5428
8,113,3,1,2,1,4,2,0,2,0.8167,1,1,0.5444
8,114,3,1,1,2,2,1,0,1,0.6263,2,2,0.4821
8,115,3,1,2,2,1,1,1,2,0.6398,2,2,0.4315
8,116,3,1,1,2,6,2,0,1,0.695,2,2,0.4867
8,117,3,1,2,2,2,2,1,2,0.6156,2,2,0.4714
8,118,3,1,1,2,3,2,0,1,0.6121,1,1,0.4039
8,119,3,1,2,2,6,1,1,2,0.6438,2,2,0.4356
8,120,3,1,1,2,4,1,0,1,0.6234,2,2,0.4791
8,121,3,1,2,1,1,1,0,2,0.8118,1,1,0.4756
8,122,3,1,2,2,6,2,1,2,0.756,1,1,0.4198
8,123,3,1,2,2,2,1,1,2,0.6951,2,2,0.4229
8,124,3,1,1,1,6,1,1,2,0.6224,1,1,0.4592
8,125,3,1,1,2,5,2,0,1,0.7515,1,1,0.4152
8,126,3,1,1,1,1,1,1,1,0.6905,2,2,0.4823
8,127,3,1,2,1,5,2,0,2,0.687,2,2,0.9907
8,128,3,1,2,1,3,1,0,2,0.7417,2,2,0.4695
8,129,3,1,2,1,6,2,0,2,0.7382,1,1,0.5939
8,130,3,1,2,2,3,1,1,2,0.617,1,1,0.4728
8,131,3,1,1,1,4,1,1,1,0.5494,2,2,0.4692
8,132,3,1,2,1,4,1,0,2,0.6334,2,2,0.5532
8,133,3,1,2,2,1,2,1,2,0.7159,1,1,0.4437
8,134,3,1,2,1,2,1,0,2,0.8117,1,1,0.4115
8,135,3,1,2,1,3,2,0,2,0.7037,2,2,0.4315
8,136,3,1,1,1,2,2,1,1,0.8229,1,1,0.4227
8,137,3,1,2,2,5,1,1,2,0.6862,2,2,0.67
8,138,3,1,1,1,6,2,1,1,0.6864,1,1,0.4142
8,139,3,1,2,1,2,2,0,1,0.6255,2,2,0.5264
8,140,3,1,1,1,5,2,1,1,0.7885,1,1,0.4522
8,141,3,1,2,2,3,2,1,2,0.7444,1,1,0.4082
8,142,3,1,2,1,5,1,0,2,0.724,1,1,0.4517
8,143,3,1,2,1,1,2,0,2,0.68,1,1,0.4077
8,144,3,1,2,1,6,1,0,2,0.747,2,2,0.5388
8,145,4,2,2,1,2,2,0,2,0.7178,1,1,0.6375
8,146,4,2,1,2,2,2,0,1,0.6893,1,1,0.6091
8,147,4,2,2,2,2,1,1,2,0.8881,2,2,0.6799
8,148,4,2,2,1,1,2,0,2,0.6963,2,2,0.6801
8,149,4,2,2,1,1,1,0,2,0.6847,1,1,0.6685
8,150,4,2,2,1,6,2,0,2,0.6326,2,2,0.5524
8,151,4,2,1,1,6,1,1,1,0.7675,1,1,0.5592
8,152,4,2,2,2,4,1,1,2,0.7455,1,1,0.6013
8,153,4,2,2,2,1,1,1,2,0.6766,1,1,0.4683
8,154,4,2,2,1,6,1,0,2,0.6848,2,2,0.7326
8,155,4,2,2,2,2,2,1,2,0.6144,2,2,0.5342
8,156,4,2,2,1,5,2,0,2,0.6278,1,1,0.5476
8,157,4,2,1,1,2,1,1,1,0.6294,2,1,0.5492
8,158,4,2,2,2,4,2,1,2,0.6031,1,1,0.4588
8,159,4,2,1,2,1,2,0,1,0.559,2,2,0.5428
8,160,4,2,1,2,1,1,0,1,0.7526,1,1,0.4804
8,161,4,2,2,1,2,1,0,2,0.5689,2,1,0.4886
8,162,4,2,1,2,5,1,0,1,0.6183,2,2,0.5381
8,163,4,2,2,1,4,2,0,2,0.5677,1,1,0.4874
8,164,4,2,1,1,4,1,1,1,0.6163,2,2,0.7921
8,165,4,2,2,2,1,2,1,2,0.7314,1,1,0.3951
8,166,4,2,1,2,5,2,0,1,0.5541,1,1,0.6019
8,167,4,2,1,2,4,1,0,1,0.5492,2,2,0.597
8,168,4,2,2,1,5,1,0,2,0.62,2,1,1.1798
8,169,4,2,1,1,1,1,1,1,0.5983,1,1,0.582
8,170,4,2,2,2,5,1,1,2,0.5646,1,1,0.7404
8,171,4,2,1,2,2,1,0,1,0.7384,1,1,0.4662
8,172,4,2,2,2,3,2,1,2,0.5664,2,1,0.6142
8,173,4,2,2,2,3,1,1,2,0.6615,1,1,1.0932
8,174,4,2,1,2,3,1,0,1,0.4823,2,2,0.6581
8,175,4,2,1,1,4,2,1,1,0.5752,2,1,0.495
8,176,4,2,1,1,1,2,1,1,0.5841,1,1,0.5679
8,177,4,2,2,2,5,2,1,2,1.0912,1,1,0.5629
8,178,4,2,1,2,3,2,0,1,0.8773,1,1,1.117
8,179,4,2,1,1,3,2,1,1,0.4591,1,1,0.5068
8,180,4,2,1,1,5,2,1,1,0.496,2,1,0.4798
8,181,4,2,2,1,3,2,0,2,0.7962,2,1,0.588
8,182,4,2,1,2,4,2,0,1,0.6588,1,1,0.4506
8,183,4,2,2,2,6,2,1,2,0.6148,2,2,0.6625
8,184,4,2,1,1,6,2,1,1,0.6267,2,2,0.6105
8,185,4,2,1,1,5,1,1,1,0.546,2,2,0.6578
8,186,4,2,1,1,2,2,1,1,0.6102,1,1,0.466
8,187,4,2,2,1,4,1,0,2,0.6824,2,2,0.5382
8,188,4,2,1,1,3,1,1,1,0.556,2,2,0.5398
8,189,4,2,1,2,6,2,0,1,0.5459,1,1,0.4657
8,190,4,2,1,2,6,1,0,1,0.7108,2,2,0.8226
8,191,4,2,2,1,3,1,0,2,0.622,2,1,0.4138
8,192,4,2,2,2,6,1,1,2,0.6611,1,1,0.5169
9,1,1,1,2,1,5,2,0,2,0.8935,2,2,0.4293
9,2,1,1,1,2,1,2,0,1,0.8848,2,2,0.5486
9,3,1,1,1,2,2,1,0,1,0.8865,1,1,0.4222
9,4,1,1,1,2,6,2,0,1,0.7497,2,2,0.6055
9,5,1,1,1,1,3,2,1,1,0.8845,1,1,0.4843
9,6,1,1,2,2,5,1,1,2,0.7817,1,1,0.5094
9,7,1,1,2,1,4,1,0,2,1.4468,2,2,0.8546
9,8,1,1,1,1,5,1,1,1,0.9388,1,1,0.4105
9,9,1,1,1,1,1,1,1,1,1.1338,2,2,0.4776
9,10,1,1,2,2,4,1,1,2,0.95,2,2,0.4858
9,11,1,1,2,2,6,2,1,2,0.7545,2,2,0.5463
9,12,1,1,1,2,3,2,0,1,1.0761,1,1,0.5479
9,13,1,1,2,2,3,2,1,2,0.8217,2,2,1.0615
9,14,1,1,1,2,2,2,0,1,0.5734,2,2,0.4932
9,15,1,1,1,2,4,1,0,1,0.8781,2,2,0.6059
9,16,1,1,2,1,3,2,0,2,0.6289,2,2,0.8687
9,17,1,1,1,2,3,1,0,1,1.3368,2,2,0.8086
9,18,1,1,2,2,2,1,1,2,1.3996,1,1,0.8714
9,19,1,1,2,1,6,2,0,2,0.8797,2,2,0.4796
9,20,1,1,2,1,4,2,0,2,0.9521,1,1,0.8078
9,21,1,1,1,2,6,1,0,1,1.0265,1,1,0.4983
9,22,1,1,2,2,1,2,1,2,0.9472,1,1,0.675
9,23,1,1,1,2,1,1,0,1,0.8194,1,1,0.4192
9,24,1,1,2,1,1,2,0,2,1.0145,1,1,0.6783
9,25,1,1,1,2,5,1,0,1,1.1309,2,2,0.9227
9,26,1,1,2,2,5,2,1,2,0.82,2,2,0.4838
9,27,1,1,2,2,2,2,1,2,0.9614,1,1,0.4972
9,28,1,1,1,1,4,2,1,1,1.1263,2,2,0.5981
9,29,1,1,2,1,3,1,0,2,1.0691,1,1,0.7329
9,30,1,1,1,2,4,2,0,1,0.9465,2,2,0.5463
9,31,1,1,2,2,1,1,1,2,1.0121,2,2,0.484
9,32,1,1,2,1,2,2,0,2,1.0086,1,1,0.4804
9,33,1,1,1,1,3,1,1,1,0.6968,1,1,0.6806
9,34,1,1,2,2,3,1,1,2,1.0692,1,1,0.477
9,35,1,1,2,2,6,1,1,2,0.9024,2,2,0.7581
9,36,1,1,2,2,4,2,1,2,1.0122,1,1,0.548
9,37,1,1,1,1,2,1,1,1,0.8218,1,1,0.5496
9,38,1,1,2,1,2,1,0,2,0.8874,1,1,0.4872
9,39,1,1,2,1,1,1,0,2,1.0811,1,1,0.6168
9,40,1,1,2,1,5,1,0,2,1.1923,2,2,0.5361
9,41,1,1,2,1,6,1,0,2,1.1939,2,2,0.8577
9,42,1,1,1,1,2,2,1,1,1.0581,2,2,0.5299
9,43,1,1,1,1,1,2,1,1,0.9317,2,2,0.6595
9,44,1,1,1,1,6,1,1,1,0.6237,1,1,0.6715
9,45,1,1,1,1,6,2,1,1,0.8041,1,1,0.468
9,46,1,1,1,1,4,1,1,1,0.8881,2,2,1.1919
9,47,1,1,1,1,5,2,1,1,0.8069,1,1,0.4066
9,48,1,1,1,2,5,2,0,1,0.9379,1,1,0.4737
9,49,2,2,2,1,2,2,0,2,1.0494,1,1,1.1611
9,50,2,2,1,2,4,2,0,1,0.8726,2,1,1.1763
9,51,2,2,2,1,1,2,0,2,0.7868,1,1,0.7066
9,52,2,2,1,1,1,1,1,1,1.1357,2,1,1.3115
9,53,2,2,1,1,3,2,1,1,0.7286,1,1,0.5203
9,54,2,2,2,2,1,1,1,2,0.8699,2,2,0.7258
9,55,2,2,2,2,3,2,1,2,0.9393,2,1,0.7951
9,56,2,2,2,2,5,2,1,2,0.6541,1,1,0.7659
9,57,2,2,1,2,6,1,0,1,1.3282,2,2,0.864
9,58,2,2,1,1,1,2,1,1,0.5001,1,1,1.1879
9,59,2,2,1,2,3,2,0,1,0.6866,1,1,0.7984
9,60,2,2,1,1,6,1,1,1,0.6971,2,2,0.9369
9,61,2,2,1,1,5,1,1,1,0.7467,1,2,1.0505
9,62,2,2,1,2,1,2,0,1,0.7368,2,2,1.4246
9,63,2,2,2,2,4,1,1,1,1.4442,1,1,1.8772
9,64,2,2,1,2,2,2,0,1,0.8215,2,2,0.9973
9,65,2,2,1,1,2,1,1,1,0.888,2,2,1.1278
9,66,2,2,1,1,3,1,1,1,0.7611,1,1,0.6169
9,67,2,2,2,2,2,2,1,2,1.0121,1,1,0.5479
9,68,2,2,2,2,6,1,1,2,0.9498,2,2,1.0615
9,69,2,2,1,1,5,2,1,1,0.9626,1,1,0.6264
9,70,2,2,2,1,4,1,0,2,0.7943,2,2,0.9061
9,71,2,2,2,1,6,1,0,2,0.9197,2,1,0.6475
9,72,2,2,2,1,6,2,0,1,1.2994,1,1,1.5537
9,73,2,2,1,2,5,1,0,1,1.0076,2,2,1.1834
9,74,2,2,2,1,1,1,0,2,1.3339,1,1,1.0617
9,75,2,2,1,2,1,1,0,1,0.8818,2,1,0.8656
9,76,2,2,2,1,3,1,0,2,1.038,1,1,0.5738
9,77,2,2,1,2,3,1,0,1,0.8123,1,1,0.5401
9,78,2,2,2,2,1,2,1,2,0.8308,2,1,0.8147
9,79,2,2,2,2,3,1,1,2,0.7782,2,2,1.0179
9,80,2,2,1,1,4,2,1,1,0.8211,1,2,1.7009
9,81,2,2,2,1,2,1,0,2,0.7937,2,2,0.5855
9,82,2,2,2,2,5,1,1,2,0.6321,1,1,0.4878
9,83,2,2,2,2,2,1,1,2,0.6285,1,1,0.6122
9,84,2,2,1,1,4,1,1,1,1.0884,2,2,0.8162
9,85,2,2,1,2,5,2,0,1,0.9357,2,2,0.6634
9,86,2,2,2,2,6,2,1,2,0.8888,1,2,0.8086
9,87,2,2,1,1,2,2,1,1,0.7956,2,2,0.7154
9,88,2,2,2,1,5,2,0,2,0.8245,1,1,0.8723
9,89,2,2,1,1,6,2,1,1,0.8806,1,1,0.5444
9,90,2,2,2,1,5,1,0,2,0.9463,1,2,0.6741
9,91,2,2,2,2,4,2,1,2,1.3547,1,1,0.6345
9,92,2,2,1,2,2,1,0,1,1.2622,2,2,0.67
9,93,2,2,2,1,4,2,0,2,0.9189,2,2,0.7747
9,94,2,2,1,2,6,2,0,1,0.7492,1,2,0.925
9,95,2,2,1,2,4,1,0,1,0.7303,2,1,0.9701
9,96,2,2,2,1,3,2,0,2,0.9204,2,2,0.6482
9,97,3,2,1,1,5,2,1,1,0.8425,1,1,0.8263
9,98,3,2,2,1,3,1,0,1,0.9458,1,2,0.913
9,99,3,2,2,1,1,1,0,2,1.059,2,2,1.1068
9,100,3,2,1,2,4,2,0,1,0.7217,2,2,0.7056
9,101,3,2,2,2,6,2,1,2,0.6631,2,1,1.2229
9,102,3,2,1,2,1,2,0,1,0.8202,2,2,1.124
9,103,3,2,1,1,2,1,1,1,0.7573,1,1,0.869
9,104,3,2,2,1,2,1,0,2,0.6972,1,1,0.809
9,105,3,2,2,2,6,1,1,2,0.696,2,2,0.5518
9,106,3,2,1,2,3,2,0,1,0.8138,1,1,0.5416
9,107,3,2,2,1,2,2,0,2,0.7044,2,2,0.9442
9,108,3,2,1,1,3,1,1,2,0.9342,2,2,0.7852
9,109,3,2,1,2,3,1,0,1,0.6199,2,2,0.6677
9,110,3,2,2,2,3,1,1,2,0.8121,1,1,0.6679
9,111,3,2,2,1,6,1,0,2,0.9808,1,1,0.9646
9,112,3,2,1,2,4,1,0,1,0.8148,1,1,0.6706
9,113,3,2,1,1,3,2,1,1,0.751,2,2,0.7988
9,114,3,2,2,2,2,2,1,2,1.25,2,2,0.5938
9,115,3,2,1,2,1,1,0,1,0.7735,1,1,0.6933
9,116,3,2,1,1,1,2,1,1,0.8024,1,1,0.5942
9,117,3,2,2,2,4,2,1,2,1.4493,1,1,0.601
9,118,3,2,1,1,5,1,1,1,0.9963,2,2,1.172
9,119,3,2,2,1,3,2,0,2,0.8915,1,1,0.4912
9,120,3,2,1,2,2,1,0,1,0.7481,1,1,0.5399
9,121,3,2,2,2,2,1,1,2,0.7498,1,1,0.9895
9,122,3,2,2,2,1,2,1,2,0.7523,2,1,0.7361
9,123,3,2,1,1,4,2,1,1,0.5377,2,1,0.4574
9,124,3,2,1,2,6,2,0,1,0.6694,1,1,0.5252
9,125,3,2,2,2,5,1,1,2,1.0146,2,2,0.4864
9,126,3,2,2,1,5,2,0,2,0.755,2,1,0.6748
9,127,3,2,2,2,1,1,1,2,0.7273,2,2,1.159
9,128,3,2,2,1,4,2,0,2,0.821,2,1,0.6128
9,129,3,2,1,1,6,1,1,1,0.9161,1,1,0.5798
9,130,3,2,2,1,6,2,0,2,0.8236,1,1,1.1913
9,131,3,2,2,1,4,1,0,1,1.5744,2,2,0.7259
9,132,3,2,1,1,2,2,1,1,0.7122,2,2,0.696
9,133,3,2,2,2,3,2,1,2,0.9449,1,1,0.6727
9,134,3,2,1,2,5,2,0,1,1.1371,1,2,1.5688
9,135,3,2,1,1,4,1,1,1,0.7911,1,1,1.0308
9,136,3,2,1,2,6,1,0,1,0.8223,2,2,0.7421
9,137,3,2,2,2,5,2,1,2,1.5839,2,2,0.9917
9,138,3,2,1,1,1,1,1,1,0.7544,2,2,0.6742
9,139,3,2,2,1,1,2,0,2,0.6148,1,1,0.9826
9,140,3,2,2,2,4,1,1,2,0.8093,2,1,0.6651
9,141,3,2,1,2,2,2,0,1,0.7816,2,2,1.2133
9,142,3,2,2,1,5,1,0,2,0.9445,1,2,1.3123
9,143,3,2,1,1,6,2,1,1,1.1656,1,1,0.6374
9,144,3,2,1,2,5,1,0,1,0.6891,1,1,1.0569
9,145,4,1,2,1,3,2,0,2,0.8428,1,1,0.4426
9,146,4,1,1,2,6,2,0,1,0.6943,1,1,0.4221
9,147,4,1,1,2,4,2,0,1,0.5576,1,1,0.4134
9,148,4,1,2,1,2,2,0,2,0.8166,2,2,0.5444
9,149,4,1,1,1,2,2,1,1,0.8183,2,2,0.5461
9,150,4,1,1,1,6,2,1,1,0.6801,1,1,0.4079
9,151,4,1,2,2,4,1,1,2,0.8752,2,2,0.603
9,152,4,1,1,1,1,2,1,1,0.9342,2,2,0.47
9,153,4,1,2,2,5,2,1,2,0.8027,1,1,0.4024
9,154,4,1,1,2,4,1,0,1,0.7417,2,2,0.6615
9,155,4,1,2,2,2,2,1,2,0.6257,2,2,0.5455
9,156,4,1,1,1,3,1,1,1,0.8193,2,2,0.4831
9,157,4,1,1,1,5,2,1,1,0.8157,1,1,1.0555
9,158,4,1,2,2,3,1,1,2,0.8874,2,2,0.4872
9,159,4,1,2,2,3,2,1,2,0.9479,1,1,0.6757
9,160,4,1,1,2,3,1,0,1,0.8201,1,1,0.4199
9,161,4,1,2,1,4,1,0,2,1.0792,2,2,0.6149
9,162,4,1,1,2,6,1,0,1,0.7424,1,1,0.4702
9,163,4,1,2,1,5,1,0,2,0.7389,2,2,0.4666
9,164,4,1,1,1,3,2,1,1,1.7071,1,1,0.9229
9,165,4,1,2,1,1,2,0,2,0.7444,1,1,0.4722
9,166,4,1,2,1,2,1,0,2,0.7409,2,2,0.6606
9,167,4,1,2,1,4,2,0,2,1.0088,2,2,0.6086
9,168,4,1,2,1,3,1,0,2,0.9516,1,1,0.8714
9,169,4,1,1,2,2,2,0,1,0.74,1,1,0.6598
9,170,4,1,2,2,4,2,1,2,0.688,2,2,0.5438
9,171,4,1,1,1,5,1,1,1,1.3936,1,1,0.5454
9,172,4,1,1,2,1,1,0,1,1.5232,2,2,0.803
9,173,4,1,2,1,6,2,0,2,1.0622,1,1,0.598
9,174,4,1,1,2,3,2,0,1,0.685,2,2,0.4768
9,175,4,1,1,1,6,1,1,1,0.8735,1,1,0.4733
9,176,4,1,1,2,2,1,0,1,0.7419,1,1,0.5978
9,177,4,1,2,1,6,1,0,2,1.2608,1,1,0.4765
9,178,4,1,2,1,1,1,0,2,0.7452,1,1,0.601
9,179,4,1,1,1,1,1,1,1,0.688,2,2,0.7358
9,180,4,1,1,2,5,2,0,1,0.8213,2,2,0.6131
9,181,4,1,1,2,1,2,0,1,0.6243,1,1,0.4802
9,182,4,1,2,2,6,2,1,2,0.8886,2,2,0.6804
9,183,4,1,1,1,4,2,1,1,0.6968,2,2,0.6166
9,184,4,1,1,1,4,1,1,1,0.8198,1,1,0.6756
9,185,4,1,1,2,5,1,0,1,0.8083,2,2,0.728
9,186,4,1,1,1,2,1,1,1,0.8776,1,1,0.4774
9,187,4,1,2,2,5,1,1,2,0.7461,2,2,0.6019
9,188,4,1,2,2,6,1,1,2,1.2818,1,1,1.0736
9,189,4,1,2,2,1,1,1,2,0.6782,2,2,0.534
9,190,4,1,2,1,5,2,0,2,1.2558,1,1,0.4716
9,191,4,1,2,2,1,2,1,2,0.624,2,2,0.6078
9,192,4,1,2,2,2,1,1,2,0.7588,2,2,0.8706
10,1,1,2,2,2,2,2,1,2,0.9824,2,2,0.7101
10,2,1,2,2,2,4,2,1,1,0.9759,2,1,0.7158
10,3,1,2,2,1,6,1,0,2,0.9367,2,2,0.6646
10,4,1,2,2,1,3,2,0,2,0.873,2,2,0.6007
10,5,1,2,1,2,3,2,0,1,0.804,2,1,0.6598
10,6,1,2,2,1,2,1,0,2,0.9042,1,1,0.44
10,7,1,2,1,2,1,1,0,1,0.6917,1,1,0.4835
10,8,1,2,2,2,4,1,1,2,0.5719,1,1,0.4917
10,9,1,2,1,2,3,1,0,1,0.7721,1,1,0.4359
10,10,1,2,2,1,2,2,0,2,0.7634,2,1,0.4913
10,11,1,2,1,1,6,2,1,1,0.9121,1,1,0.4479
10,12,1,2,1,1,3,2,1,1,0.7401,2,1,0.5959
10,13,1,2,1,2,2,1,0,1,0.7307,1,1,0.6505
10,14,1,2,2,1,4,2,0,2,0.8824,2,2,0.6102
10,15,1,2,2,1,5,2,0,1,0.7612,2,2,0.5327
10,16,1,2,2,2,1,2,1,2,0.8183,1,1,0.482
10,17,1,2,1,1,5,1,1,1,0.8905,2,2,0.7463
10,18,1,2,1,1,5,2,1,1,0.6281,1,2,0.4839
10,19,1,2,1,2,6,2,0,1,0.7415,2,2,0.4693
10,20,1,2,2,1,4,1,0,2,0.802,2,2,0.5297
10,21,1,2,2,1,6,2,0,2,0.8153,1,1,0.7991
10,22,1,2,2,2,2,1,1,2,0.7501,1,1,0.7339
10,23,1,2,1,1,2,1,1,1,0.7673,2,2,0.559
10,24,1,2,2,2,6,2,1,2,0.7689,2,2,0.6247
10,25,1,2,1,1,2,2,1,1,0.6881,1,1,0.4799
10,26,1,2,1,1,6,1,1,1,0.6846,1,1,0.7324
10,27,1,2,1,1,1,2,1,1,0.6142,1,2,0.662
10,28,1,2,1,1,4,2,1,1,0.5629,1,1,0.7387
10,29,1,2,1,2,2,2,0,1,0.644,2,1,0.6278
10,30,1,2,1,2,1,2,0,1,0.628,1,1,0.4198
10,31,1,2,2,1,1,2,0,2,0.887,2,1,1.6388
10,32,1,2,1,2,5,2,0,1,0.6102,2,1,0.594
10,33,1,2,1,2,5,1,0,1,0.7457,2,1,0.5375
10,34,1,2,2,2,5,2,1,2,1.1151,2,1,0.4589
10,35,1,2,1,2,4,1,0,1,0.7871,1,1,1.1549
10,36,1,2,1,1,1,1,1,1,0.6249,1,1,0.6087
10,37,1,2,2,2,3,2,1,2,0.8354,1,2,0.7552
10,38,1,2,1,2,6,1,0,1,0.7253,1,1,0.3251
10,39,1,2,2,1,1,1,0,2,0.9505,2,2,0.5503
10,40,1,2,2,2,1,1,1,2,0.6321,2,1,0.5519
10,41,1,2,2,1,5,1,0,2,0.8147,1,1,0.6065
10,42,1,2,2,2,6,1,1,2,0.7457,1,1,0.5375
10,43,1,2,1,2,4,2,0,1,0.6951,1,1,0.4869
10,44,1,2,1,1,4,1,1,1,0.6915,1,1,0.5473
10,45,1,2,1,1,3,1,1,1,1.2169,1,1,0.4967
10,46,1,2,2,2,5,1,1,2,0.6896,2,2,0.7374
10,47,1,2,2,1,3,1,0,2,0.695,2,1,0.7428
10,48,1,2,2,2,3,1,1,2,0.9336,2,1,0.4693
10,49,2,1,2,2,5,2,1,2,0.7724,2,2,0.7562
10,50,2,1,1,2,5,2,0,1,0.5035,1,1,0.7432
10,51,2,1,1,2,2,1,0,1,0.817,1,1,0.6088
10,52,2,1,2,2,6,2,1,1,0.6436,1,1,0.5327
10,53,2,1,2,2,5,1,1,2,0.7543,1,1,0.3541
10,54,2,1,1,1,6,1,1,1,0.6242,1,1,0.416
10,55,2,1,2,1,2,1,0,2,0.7553,1,1,0.419
10,56,2,1,1,1,2,2,1,1,0.851,2,2,0.6428
10,57,2,1,2,2,3,1,1,2,0.8107,2,1,0.4745
10,58,2,1,2,1,1,2,0,2,0.8079,1,1,0.4077
10,59,2,1,2,1,2,2,0,2,0.6425,2,2,0.4983
10,60,2,1,2,2,6,1,1,2,0.8192,2,2,0.547
10,61,2,1,2,1,4,1,0,2,0.745,2,2,0.6008
10,62,2,1,2,1,6,1,0,2,1.4676,1,1,0.6194
10,63,2,1,1,2,1,1,0,1,0.6306,1,1,0.4224
10,64,2,1,2,1,4,2,0,2,0.7551,2,2,0.4829
10,65,2,1,2,1,3,1,0,2,0.728,2,2,0.4558
10,66,2,1,2,2,1,2,1,2,0.9517,2,2,0.4875
10,67,2,1,1,1,3,2,1,1,0.9483,1,1,0.548
10,68,2,1,1,1,5,2,1,1,0.7056,1,1,0.4334
10,69,2,1,2,2,2,2,1,2,0.6969,1,1,0.4247
10,70,2,1,2,2,2,1,1,2,1.3921,1,1,0.5439
10,71,2,1,1,2,4,1,0,1,0.7707,1,1,0.4345
10,72,2,1,1,1,6,2,1,1,0.7502,2,2,0.414
10,73,2,1,1,2,5,1,0,1,0.6253,2,2,0.4811
10,74,2,1,2,2,3,2,1,2,0.8137,2,2,0.4135
10,75,2,1,2,1,5,2,0,2,0.7528,1,1,0.5446
10,76,2,1,1,2,3,2,0,1,1.1384,2,2,0.4182
10,77,2,1,1,2,3,1,0,1,0.7574,2,2,0.4852
10,78,2,1,1,2,2,2,0,1,0.6142,1,1,0.5339
10,79,2,1,1,1,2,1,1,1,0.5635,2,2,0.5473
10,80,2,1,2,2,1,1,1,2,0.7454,1,1,0.5372
10,81,2,1,2,2,4,1,1,2,0.8228,1,1,0.4226
10,82,2,1,1,1,1,1,1,1,0.6978,2,2,0.4896
10,83,2,1,1,1,4,1,1,1,0.6943,2,2,0.4861
10,84,2,1,2,2,4,2,1,2,0.8187,2,2,0.7385
10,85,2,1,2,1,1,1,0,2,1.0161,2,2,0.4239
10,86,2,1,1,2,4,2,0,1,0.6874,2,2,0.5431
10,87,2,1,2,1,6,2,0,2,1.457,1,2,0.6728
10,88,2,1,1,1,1,2,1,1,0.6612,2,2,0.453
10,89,2,1,2,1,3,2,0,2,0.885,2,2,0.5487
10,90,2,1,1,2,6,1,0,1,0.9506,1,1,0.6784
10,91,2,1,1,1,5,1,1,1,0.683,2,2,0.4748
10,92,2,1,1,1,4,2,1,1,0.6272,1,1,0.419
10,93,2,1,1,2,1,2,0,1,0.6303,1,1,0.4221
10,94,2,1,1,2,6,2,0,1,0.6216,1,1,0.4773
10,95,2,1,2,1,5,1,0,2,0.7578,1,1,0.4216
10,96,2,1,1,1,3,1,1,1,0.7138,2,2,0.6975
10,97,3,1,1,2,1,2,0,1,0.5962,1,1,0.452
10,98,3,1,1,2,1,1,0,1,1.0878,2,2,0.4955
10,99,3,1,1,2,6,1,0,1,0.5721,1,2,0.5559
10,100,3,1,2,2,4,1,1,2,0.6098,1,1,0.4656
10,101,3,1,1,2,2,2,0,1,0.746,1,1,0.3458
10,102,3,1,1,1,1,2,1,1,0.6159,2,2,0.4077
10,103,3,1,2,2,4,2,1,2,0.7469,1,1,0.4107
10,104,3,1,2,2,5,2,1,2,0.686,2,2,0.4138
10,105,3,1,1,2,4,2,0,1,0.7178,2,1,0.7015
10,106,3,1,1,2,5,1,0,1,0.6024,2,2,0.7782
10,107,3,1,1,1,2,1,1,1,0.6887,2,2,0.9285
10,108,3,1,1,1,3,1,1,1,0.6979,1,1,0.4896
10,109,3,1,1,1,4,2,1,1,0.4905,2,2,0.4743
10,110,3,1,1,1,5,1,1,1,0.5627,1,1,0.4825
10,111,3,1,1,1,3,2,1,1,0.6232,1,1,0.735
10,112,3,1,1,2,3,1,0,1,0.6926,2,2,0.4203
10,113,3,1,2,1,4,2,0,2,0.8994,1,1,0.8831
10,114,3,1,1,2,2,1,0,1,0.6355,2,2,0.6193
10,115,3,1,2,2,1,1,1,2,0.8343,2,2,0.6261
10,116,3,1,1,2,6,2,0,1,0.8698,2,2,0.5336
10,117,3,1,2,2,2,2,1,2,0.8832,2,2,0.995
10,118,3,1,1,2,3,2,0,1,0.9667,1,1,0.4384
10,119,3,1,2,2,6,1,1,2,0.8182,2,2,0.482
10,120,3,1,1,2,4,1,0,1,0.6226,2,2,0.5424
10,121,3,1,2,1,1,1,0,2,0.6243,1,1,0.544
10,122,3,1,2,2,6,2,1,2,0.7708,1,1,0.4986
10,123,3,1,2,2,2,1,1,2,0.5635,2,2,0.6753
10,124,3,1,1,1,6,1,1,1,0.9124,1,1,0.5122
10,125,3,1,1,2,5,2,0,1,0.9611,1,1,0.4329
10,126,3,1,1,1,1,1,1,1,0.7721,2,2,0.5639
10,127,3,1,2,1,5,2,0,2,0.9422,2,2,0.606
10,128,3,1,2,1,3,1,0,2,0.885,2,2,0.6128
10,129,3,1,2,1,6,2,0,2,0.8566,1,1,0.4563
10,130,3,1,2,2,3,1,1,2,0.6845,1,1,0.4763
10,131,3,1,1,1,4,1,1,1,0.8847,2,2,0.8685
10,132,3,1,2,1,4,1,0,2,0.7489,2,1,0.6687
10,133,3,1,2,2,1,2,1,2,0.8609,1,1,0.5247
10,134,3,1,2,1,2,1,0,2,0.758,1,1,0.4218
10,135,3,1,2,1,3,2,0,2,0.6971,2,2,0.5529
10,136,3,1,1,1,2,2,1,2,0.5589,1,1,0.5944
10,137,3,1,2,2,5,1,1,2,0.8852,2,2,0.485
10,138,3,1,1,1,6,2,1,1,0.7536,1,1,0.5454
10,139,3,1,2,1,2,2,0,2,0.8193,2,2,0.483
10,140,3,1,1,1,5,2,1,1,0.8275,1,1,0.6193
10,141,3,1,2,2,3,2,1,2,0.8225,1,1,0.6143
10,142,3,1,2,1,5,1,0,2,0.7418,1,1,0.6616
10,143,3,1,2,1,1,2,0,2,0.934,1,1,0.4698
10,144,3,1,2,1,6,1,0,2,0.7502,2,2,0.67
10,145,4,2,2,1,2,2,0,2,0.8234,1,1,0.5512
10,146,4,2,1,2,2,2,0,1,0.7427,1,1,0.6625
10,147,4,2,2,2,2,1,1,2,0.6266,2,2,0.7384
10,148,4,2,2,1,1,2,0,2,0.632,2,2,0.5518
10,149,4,2,2,1,1,1,0,2,0.7498,1,1,0.7337
10,150,4,2,2,1,6,2,0,2,0.6912,2,2,0.675
10,151,4,2,1,1,6,1,1,1,0.6914,1,1,0.6752
10,152,4,2,2,2,4,1,1,2,0.7556,1,2,0.8034
10,153,4,2,2,2,1,1,1,2,0.6793,1,1,0.4071
10,154,4,2,2,1,6,1,0,2,0.7463,2,2,1.3702
10,155,4,2,2,2,2,2,1,2,0.6806,2,2,1.0484
10,156,4,2,2,1,5,2,0,2,0.8045,1,1,0.9163
10,157,4,2,1,1,2,1,1,1,0.7026,2,2,0.9423
10,158,4,2,2,2,4,2,1,2,0.7521,1,1,0.7359
10,159,4,2,1,2,1,2,0,1,0.6935,2,1,0.6773
10,160,4,2,1,2,1,1,0,1,0.6657,1,1,0.5215
10,161,4,2,2,1,2,1,0,2,0.8829,2,1,0.9307
10,162,4,2,1,2,5,1,0,1,0.7243,2,1,0.58
10,163,4,2,2,1,4,2,0,2,0.7906,1,1,0.5184
10,164,4,2,1,1,4,1,1,1,0.7047,2,2,1.1365
10,165,4,2,2,2,1,2,1,2,0.566,1,1,0.6778
10,166,4,2,1,2,5,2,0,1,0.6994,1,2,0.9391
10,167,4,2,1,2,4,1,0,1,0.657,2,2,0.6407
10,168,4,2,2,1,5,1,0,2,0.6807,2,2,0.8565
10,169,4,2,1,1,1,1,1,1,0.6324,1,1,0.8082
10,170,4,2,2,2,5,1,1,2,0.6599,1,1,0.5156
10,171,4,2,1,2,2,1,0,1,0.5688,1,1,0.4886
10,172,4,2,2,2,3,2,1,2,0.6292,2,2,1.189
10,173,4,2,2,2,3,1,1,2,0.6237,1,2,1.5675
10,174,4,2,1,2,3,1,0,1,0.7897,2,2,0.5815
10,175,4,2,1,1,4,2,1,1,0.6281,2,1,0.7398
10,176,4,2,1,1,1,2,1,1,0.6694,1,1,1.1012
10,177,4,2,2,2,5,2,1,2,0.8103,1,1,0.5381
10,178,4,2,1,2,3,2,0,1,0.7766,1,1,0.6324
10,179,4,2,1,1,3,2,1,1,0.6201,1,1,0.7319
10,180,4,2,1,1,5,2,1,1,0.6137,2,2,0.8535
10,181,4,2,2,1,3,2,0,2,0.8214,2,2,0.8053
10,182,4,2,1,2,4,2,0,1,0.7562,1,1,1.124
10,183,4,2,2,2,6,2,1,2,0.8853,2,2,0.8691
10,184,4,2,1,1,6,2,1,1,0.8892,2,2,1.193
10,185,4,2,1,1,5,1,1,1,0.8197,2,2,1.5715
10,186,4,2,1,1,2,2,1,1,0.7577,1,1,1.2535
10,187,4,2,2,1,4,1,0,2,0.6816,2,1,1.4974
10,188,4,2,1,1,3,1,1,1,0.6674,2,1,1.0352
10,189,4,2,1,2,6,2,0,1,0.592,1,1,0.5118
10,190,4,2,1,2,6,1,0,1,0.7099,2,2,0.8216
10,191,4,2,2,1,3,1,0,2,0.8131,2,2,1.1169
10,192,4,2,2,2,6,1,1,2,0.7384,1,1,0.7222
11,1,1,1,2,2,2,2,1,2,0.7672,2,2,0.431
11,2,1,1,2,2,4,2,1,2,0.4798,2,2,0.5276
11,3,1,1,2,1,6,1,0,2,0.6852,2,2,0.541
11,4,1,1,2,1,3,2,0,2,0.7038,2,2,1.1355
11,5,1,1,1,2,3,2,0,1,0.8211,2,2,0.5489
11,6,1,1,2,1,2,1,0,2,0.6947,1,2,0.6145
11,7,1,1,1,2,1,1,0,1,0.7375,1,1,0.4013
11,8,1,1,2,2,4,1,1,2,0.4846,1,1,0.5324
11,9,1,1,1,2,3,1,0,1,0.6782,1,1,0.406
11,10,1,1,2,1,2,2,0,2,0.821,2,2,0.4848
11,11,1,1,1,1,6,2,1,1,0.6137,1,1,0.4055
11,12,1,1,1,1,3,2,1,1,0.7043,2,2,0.56
11,13,1,1,1,2,2,1,0,1,0.7581,1,1,0.3579
11,14,1,1,2,1,4,2,0,2,0.628,2,2,0.5478
11,15,1,1,2,1,5,2,0,2,0.6296,2,2,0.5494
11,16,1,1,2,2,1,2,1,2,0.6313,1,1,0.807
11,17,1,1,1,1,5,1,1,1,0.694,2,2,0.6138
11,18,1,1,1,1,5,2,1,1,0.625,1,1,0.3528
11,19,1,1,1,2,6,2,0,1,0.7509,2,2,0.5427
11,20,1,1,2,1,4,1,0,2,0.6364,2,2,0.5561
11,21,1,1,2,1,6,2,0,2,0.9462,1,1,0.482
11,22,1,1,2,2,2,1,1,2,0.5586,1,1,0.3504
11,23,1,1,1,1,2,1,1,1,0.6205,2,2,0.5403
11,24,1,1,2,2,6,2,1,1,0.4941,2,2,0.6524
11,25,1,1,1,1,2,2,1,1,0.4886,1,1,0.4084
11,26,1,1,1,1,6,1,1,1,0.5557,1,1,1.3074
11,27,1,1,1,1,1,2,1,1,0.5605,1,1,0.3523
11,28,1,1,1,1,4,2,1,1,0.6224,1,1,0.4782
11,29,1,1,1,2,2,2,0,1,0.5666,2,1,0.6144
11,30,1,1,1,2,1,2,0,1,0.6094,1,1,0.6572
11,31,1,1,2,1,1,2,0,7,7,2,2,0.8332
11,32,1,1,1,2,5,2,0,1,0.6209,2,2,0.4766
11,33,1,1,1,2,5,1,0,1,0.8851,2,2,0.6769
11,34,1,1,2,2,5,2,1,2,0.53,2,1,0.7058
11,35,1,1,1,2,4,1,0,1,0.8627,1,1,0.8464
11,36,1,1,1,1,1,1,1,1,0.5701,1,1,0.3619
11,37,1,1,2,2,3,2,1,2,0.632,1,1,0.4238
11,38,1,1,1,2,6,1,0,1,0.8153,1,1,0.4791
11,39,1,1,2,1,1,1,0,2,0.7478,2,2,0.6036
11,40,1,1,2,2,1,1,1,2,0.6265,2,2,0.6103
11,41,1,1,2,1,5,1,0,2,0.5863,1,1,0.506
11,42,1,1,2,2,6,1,1,2,0.6232,1,1,0.415
11,43,1,1,1,2,4,2,0,1,0.9462,1,1,0.418
11,44,1,1,1,1,4,1,1,1,0.7573,1,1,0.4211
11,45,1,1,1,1,3,1,1,1,0.6963,1,1,0.6801
11,46,1,1,2,2,5,1,1,2,0.6377,2,2,0.6215
11,47,1,1,2,1,3,1,0,2,0.5452,2,2,0.465
11,48,1,1,2,2,3,1,1,2,0.5939,2,2,0.7056
11,49,2,2,2,2,5,2,1,2,0.8756,2,2,1.1794
11,50,2,2,1,2,5,2,0,1,0.6259,1,1,0.6736
11,51,2,2,1,2,2,1,0,1,0.8181,1,1,0.6738
11,52,2,2,2,2,6,2,1,2,0.6903,1,1,0.738
11,53,2,2,2,2,5,1,1,2,0.6199,1,1,0.6677
11,54,2,2,1,1,6,1,1,1,0.4921,1,1,0.7318
11,55,2,2,2,1,2,1,0,2,0.6777,1,1,0.6614
11,56,2,2,1,1,2,2,1,1,0.7418,2,1,0.5976
11,57,2,2,2,2,3,1,1,2,0.5691,2,2,0.6169
11,58,2,2,2,1,1,2,0,2,0.6282,1,1,0.7399
11,59,2,2,2,1,2,2,0,2,0.5055,2,2,0.9373
11,60,2,2,2,2,6,1,1,2,0.6309,2,1,0.6147
11,61,2,2,2,1,4,1,0,2,0.5222,2,2,0.4419
11,62,2,2,2,1,6,1,0,2,0.5054,1,1,0.6172
11,63,2,2,1,2,1,1,0,1,0.6924,1,1,0.9322
11,64,2,2,2,1,4,2,0,2,0.5618,2,1,0.8656
11,65,2,2,2,1,3,1,0,2,0.6187,2,2,0.4745
11,66,2,2,2,2,1,2,1,2,0.5629,2,2,1.0587
11,67,2,2,1,1,3,2,1,1,0.5588,1,2,0.7986
11,68,2,2,1,1,5,2,1,1,0.4892,1,1,0.7289
11,69,2,2,2,2,2,2,1,2,0.5467,1,1,0.5945
11,70,2,2,2,2,2,1,1,2,0.4895,1,1,0.6653
11,71,2,2,1,2,4,1,0,1,0.8097,1,1,0.9855
11,72,2,2,1,1,6,2,1,1,0.632,2,2,1.0638
11,73,2,2,1,2,5,1,0,1,0.5639,2,2,0.4837
11,74,2,2,2,2,3,2,1,2,0.6244,2,2,0.8002
11,75,2,2,2,1,5,2,0,1,0.4951,1,1,1.3575
11,76,2,2,1,2,3,2,0,1,0.6157,2,2,1.0475
11,77,2,2,1,2,3,1,0,1,0.8036,2,2,0.7874
11,78,2,2,1,2,2,2,0,1,0.6104,1,1,0.7862
11,79,2,2,1,1,2,1,1,1,0.6209,2,2,0.7327
11,80,2,2,2,2,1,1,1,1,0.5623,1,1,1.0458
11,81,2,2,2,2,4,1,1,2,0.5694,1,1,0.6172
11,82,2,2,1,1,1,1,1,1,0.5644,2,2,0.4842
11,83,2,2,1,1,4,1,1,1,0.5086,2,2,0.4925
11,84,2,2,2,2,4,2,1,2,0.6214,2,2,0.6691
11,85,2,2,2,1,1,1,0,2,0.7143,2,1,1.658
11,86,2,2,1,2,4,2,0,2,0.6111,2,1,1.1637
11,87,2,2,2,1,6,2,0,2,0.7441,1,2,0.7919
11,88,2,2,1,1,1,2,1,1,0.5986,2,2,0.4544
11,89,2,2,2,1,3,2,0,2,0.5664,2,1,0.5502
11,90,2,2,1,2,6,1,0,1,1.0638,1,1,0.5356
11,91,2,2,1,1,5,1,1,1,0.7572,2,2,0.485
11,92,2,2,1,1,4,2,1,1,0.5499,1,1,0.5337
11,93,2,2,1,2,1,2,0,1,0.5515,1,1,0.6633
11,94,2,2,1,2,6,2,0,1,0.5517,1,1,0.6635
11,95,2,2,2,1,5,1,0,2,0.5924,1,1,0.5761
11,96,2,2,1,1,3,1,1,1,0.7507,2,1,0.8625
11,97,3,2,1,2,1,2,0,1,0.529,1,1,0.5768
11,98,3,2,1,2,1,1,0,1,0.9433,2,2,0.6071
11,99,3,2,1,2,6,1,0,1,0.6183,1,1,0.6021
11,100,3,2,2,2,4,1,1,1,0.45,1,1,0.5914
11,101,3,2,1,2,2,2,0,1,0.6667,1,1,0.7145
11,102,3,2,1,1,1,2,1,1,0.4918,2,2,0.7316
11,103,3,2,2,2,4,2,1,2,0.6892,1,1,0.673
11,104,3,2,2,2,5,2,1,2,0.5614,2,1,0.6731
11,105,3,2,1,2,4,2,0,1,0.5976,2,1,0.6454
11,106,3,2,1,2,5,1,0,1,0.7971,2,2,0.6529
11,107,3,2,1,1,2,1,1,1,0.7451,2,2,0.6008
11,108,3,2,1,1,3,1,1,1,0.4841,1,2,0.5959
11,109,3,2,1,1,4,2,1,1,0.5034,2,2,0.9991
11,110,3,2,1,1,5,1,1,1,0.4941,1,1,0.8619
11,111,3,2,1,1,3,2,1,1,0.4223,1,1,0.5341
11,112,3,2,1,2,3,1,0,1,0.4997,2,2,0.4834
11,113,3,2,2,1,4,2,0,2,0.6241,1,1,0.4799
11,114,3,2,1,2,2,1,0,1,0.6323,2,2,0.4881
11,115,3,2,2,2,1,1,1,2,0.6171,2,1,0.7288
11,116,3,2,1,2,6,2,0,1,0.5826,2,2,0.6944
11,117,3,2,2,2,2,2,1,2,0.7042,2,2,0.4961
11,118,3,2,1,2,3,2,0,1,0.6772,1,1,0.597
11,119,3,2,2,2,6,1,1,2,0.556,2,1,0.6037
11,120,3,2,1,2,4,1,0,1,0.5988,2,2,0.6466
11,121,3,2,2,1,1,1,0,2,0.6107,1,2,0.7225
11,122,3,2,2,2,6,2,1,2,0.5359,1,1,0.5837
11,123,3,2,2,2,2,1,1,2,0.5662,2,2,0.678
11,124,3,2,1,1,6,1,1,1,0.5024,1,1,0.6782
11,125,3,2,1,2,5,2,0,1,0.4386,1,1,0.4864
11,126,3,2,1,1,1,1,1,1,0.5631,2,2,0.6108
11,127,3,2,2,1,5,2,0,2,0.7501,2,2,0.4779
11,128,3,2,2,1,3,1,0,2,0.5832,2,1,0.6311
11,129,3,2,2,1,6,2,0,2,0.5908,1,1,0.7666
11,130,3,2,2,2,3,1,1,2,0.5661,1,1,0.6778
11,131,3,2,1,1,4,1,1,1,0.6184,2,1,0.6022
11,132,3,2,2,1,4,1,0,2,0.6495,2,2,0.5053
11,133,3,2,2,2,1,2,1,2,0.5466,1,1,0.5944
11,134,3,2,2,1,2,1,0,2,0.5299,1,2,0.8977
11,135,3,2,2,1,3,2,0,2,0.5345,2,2,0.7743
11,136,3,2,1,1,2,2,1,1,0.6208,1,1,0.7966
11,137,3,2,2,2,5,1,1,2,0.6314,2,2,0.9991
11,138,3,2,1,1,6,2,1,1,0.5581,1,1,0.9899
11,139,3,2,2,1,2,2,0,2,0.4966,2,2,0.9924
11,140,3,2,1,1,5,2,1,1,0.5514,1,1,0.7272
11,141,3,2,2,2,3,2,1,2,0.6208,1,1,0.5405
11,142,3,2,2,1,5,1,0,2,0.5114,1,1,0.6231
11,143,3,2,2,1,1,2,0,2,0.4828,1,1,0.5946
11,144,3,2,2,1,6,1,0,2,0.5536,2,2,0.9214
11,145,4,1,2,1,2,2,0,2,0.983,1,1,0.4547
11,146,4,1,1,2,2,2,0,1,0.5667,1,1,0.4865
11,147,4,1,2,2,2,1,1,2,0.6154,2,2,0.4712
11,148,4,1,2,1,1,2,0,2,0.5596,2,2,0.4794
11,149,4,1,2,1,1,1,0,2,0.8878,1,1,0.3596
11,150,4,1,2,1,6,2,0,2,0.5657,2,2,0.5495
11,151,4,1,1,1,6,1,1,1,0.8116,1,1,0.5393
11,152,4,1,2,2,4,1,1,2,0.5859,1,1,1.0176
11,153,4,1,2,2,1,1,1,2,0.5531,1,1,0.4729
11,154,4,1,2,1,6,1,0,2,0.5496,2,2,0.5333
11,155,4,1,2,2,2,2,1,2,0.4872,2,2,0.6629
11,156,4,1,2,1,5,2,0,2,0.8714,1,2,0.6631
11,157,4,1,1,1,2,1,1,1,0.7273,2,2,0.5191
11,158,4,1,2,2,4,2,1,2,0.5605,1,1,0.4163
11,159,4,1,1,2,1,2,0,1,0.604,2,2,0.6518
11,160,4,1,1,2,1,1,0,1,0.7557,1,1,0.5475
11,161,4,1,2,1,2,1,0,2,0.6294,2,2,0.5492
11,162,4,1,1,2,5,1,0,1,0.8112,2,2,0.923
11,163,4,1,2,1,4,2,0,2,0.5813,1,1,0.501
11,164,4,1,1,1,4,1,1,1,0.6182,2,2,0.73
11,165,4,1,2,2,1,2,1,2,0.6118,1,1,0.3396
11,166,4,1,1,2,5,2,0,1,0.6501,1,1,0.6339
11,167,4,1,1,2,4,1,0,1,0.5459,2,2,0.5936
11,168,4,1,2,1,5,1,0,2,0.5814,2,2,0.4371
11,169,4,1,1,1,1,1,1,1,0.7529,1,1,1.0566
11,170,4,1,2,2,5,1,1,2,0.6325,1,1,0.5523
11,171,4,1,1,2,2,1,0,1,0.6224,1,1,0.6702
11,172,4,1,2,2,3,2,1,2,0.6866,2,2,0.4784
11,173,4,1,2,2,3,1,1,2,0.5668,1,1,0.7426
11,174,4,1,1,2,3,1,0,1,0.6936,2,2,0.5494
11,175,4,1,1,1,4,2,1,1,0.5437,2,2,0.5915
11,176,4,1,1,1,1,2,1,1,0.5034,1,1,0.3592
11,177,4,1,2,2,5,2,1,7,7,1,1,0.9456
11,178,4,1,1,2,3,2,0,1,0.7436,1,1,0.4074
11,179,4,1,1,1,3,2,1,1,0.5664,1,1,0.4862
11,180,4,1,1,1,5,2,1,1,0.5732,2,2,1.901
11,181,4,1,2,1,3,2,0,2,0.6297,2,2,0.6775
11,182,4,1,1,2,4,2,0,1,0.6299,1,2,0.4857
11,183,4,1,2,2,6,2,1,2,0.5984,2,2,0.4542
11,184,4,1,1,1,6,2,1,1,0.5021,2,2,0.5499
11,185,4,1,1,1,5,1,1,1,0.556,2,2,0.6038
11,186,4,1,1,1,2,2,1,1,0.551,1,2,0.5348
11,187,4,1,2,1,4,1,0,2,0.7807,2,2,0.5724
11,188,4,1,1,1,3,1,1,1,0.5197,2,2,0.5035
11,189,4,1,1,2,6,2,0,1,0.5566,1,1,0.7964
11,190,4,1,1,2,6,1,0,1,0.8231,2,2,0.4869
11,191,4,1,2,1,3,1,0,2,0.6158,2,2,0.4716
11,192,4,1,2,2,6,1,1,2,0.5601,1,1,0.6078
12,1,1,2,2,2,2,2,1,2,0.8581,2,1,1.1618
12,2,1,2,2,2,4,2,1,2,0.9695,2,2,0.6973
12,3,1,2,2,1,6,1,0,1,0.7424,2,1,1.4216
12,4,1,2,2,1,3,2,0,2,0.9417,2,2,1.0535
12,5,1,2,1,2,3,2,0,1,1.2106,2,2,0.6184
12,6,1,2,2,1,2,1,0,2,0.6818,1,2,0.7936
12,7,1,2,1,2,1,1,0,1,0.7402,1,1,1.0439
12,8,1,2,2,2,4,1,1,2,0.8236,1,1,0.6794
12,9,1,2,1,2,3,1,0,1,0.8878,1,1,0.9356
12,10,1,2,2,1,2,2,0,2,0.7572,2,2,0.8049
12,11,1,2,1,1,6,2,1,1,0.7089,1,1,0.6926
12,12,1,2,1,1,3,2,1,2,0.9533,2,2,0.9727
12,13,1,2,1,2,2,1,0,1,0.7237,1,1,1.0275
12,14,1,2,2,1,4,2,0,2,0.7549,2,1,0.7387
12,15,1,2,2,1,5,2,0,2,0.9243,2,1,0.6521
12,16,1,2,2,2,1,2,1,2,0.6758,1,2,0.5316
12,17,1,2,1,1,5,1,1,1,0.6612,2,1,0.709
12,18,1,2,1,1,5,2,1,1,0.6268,1,1,0.7386
12,19,1,2,1,2,6,2,0,1,0.8764,2,1,0.4762
12,20,1,2,2,1,4,1,0,2,0.6934,2,2,0.7411
12,21,1,2,2,1,6,2,0,2,0.687,1,1,0.5427
12,22,1,2,2,2,2,1,1,2,0.7526,1,2,0.4804
12,23,1,2,1,1,2,1,1,1,0.6048,2,2,0.5246
12,24,1,2,2,2,6,2,1,2,0.63,2,2,0.4857
12,25,1,2,1,1,2,2,1,1,0.7544,1,2,0.6742
12,26,1,2,1,1,6,1,1,1,0.5986,1,2,0.5185
12,27,1,2,1,1,1,2,1,1,0.584,1,1,0.4398
12,28,1,2,1,1,4,2,1,1,0.6916,1,1,0.6113
12,29,1,2,1,2,2,2,0,1,0.8904,2,1,0.8741
12,30,1,2,1,2,1,2,0,1,0.4705,1,1,0.5183
12,31,1,2,2,1,1,2,0,2,0.6877,2,2,0.3515
12,32,1,2,1,2,5,2,0,1,0.7378,2,2,0.5296
12,33,1,2,1,2,5,1,0,1,0.9954,2,2,0.6592
12,34,1,2,2,2,5,2,1,1,0.9957,2,2,0.5958
12,35,1,2,1,2,4,1,0,1,0.6593,1,2,0.579
12,36,1,2,1,1,1,1,1,1,0.7256,1,1,0.3894
12,37,1,2,2,2,3,2,1,2,1.0082,1,2,0.352
12,38,1,2,1,2,6,1,0,1,0.9141,1,2,0.6419
12,39,1,2,2,1,1,1,0,2,0.7936,2,1,0.7774
12,40,1,2,2,2,1,1,1,2,0.7408,2,1,0.5326
12,41,1,2,2,1,5,1,0,2,0.9065,1,2,0.7623
12,42,1,2,2,2,6,1,1,2,0.7846,1,1,0.3844
12,43,1,2,1,2,4,2,0,1,1.2709,1,1,0.4227
12,44,1,2,1,1,4,1,1,1,0.7671,1,1,0.4309
12,45,1,2,1,1,3,1,1,1,0.8864,1,1,0.4862
12,46,1,2,2,2,5,1,1,2,0.6269,2,1,0.3547
12,47,1,2,2,1,3,1,0,2,1.3648,2,2,0.5805
12,48,1,2,2,2,3,1,1,2,1.0633,2,2,0.4071
12,49,2,1,2,2,5,2,1,2,0.6105,2,2,0.4664
12,50,2,1,1,2,5,2,0,1,0.7115,1,1,0.5032
12,51,2,1,1,2,2,1,0,1,1.1088,1,1,0.9647
12,52,2,1,2,2,6,2,1,2,0.8149,1,1,0.6067
12,53,2,1,2,2,5,1,1,2,1.0137,1,1,0.7415
12,54,2,1,1,1,6,1,1,1,0.8035,1,1,0.5313
12,55,2,1,2,1,2,1,0,2,0.8051,1,1,0.5329
12,56,2,1,1,1,2,2,1,1,0.7428,2,2,0.5346
12,57,2,1,2,2,3,1,1,2,0.7444,2,2,0.4722
12,58,2,1,2,1,1,2,0,2,0.7526,1,1,0.4804
12,59,2,1,2,1,2,2,0,2,0.6969,2,2,0.7446
12,60,2,1,2,2,6,1,1,2,0.8184,2,2,0.9302
12,61,2,1,2,1,4,1,0,2,0.9439,2,2,0.4156
12,62,2,1,2,1,6,1,0,2,0.7548,1,1,1.5706
12,63,2,1,1,2,1,1,0,1,1.2218,1,1,0.6295
12,64,2,1,2,1,4,2,0,2,0.8092,2,2,0.665
12,65,2,1,2,1,3,1,0,2,1.0014,2,2,0.4732
12,66,2,1,2,2,1,2,1,2,0.5617,2,2,0.5454
12,67,2,1,1,1,3,2,1,1,0.8192,1,1,0.995
12,68,2,1,1,1,5,2,1,1,0.6938,1,1,0.4856
12,69,2,1,2,2,2,2,1,2,0.6262,1,1,0.546
12,70,2,1,2,2,2,1,1,2,0.6801,1,1,0.6639
12,71,2,1,1,2,4,1,0,1,0.6972,1,1,0.489
12,72,2,1,1,1,6,2,1,1,0.6179,2,2,0.5377
12,73,2,1,1,2,5,1,0,1,0.9682,2,2,0.504
12,74,2,1,2,2,3,2,1,2,0.8249,2,2,0.7447
12,75,2,1,2,1,5,2,0,2,0.6266,1,1,0.4183
12,76,2,1,1,2,3,2,0,1,0.9496,2,2,0.5494
12,77,2,1,1,2,3,1,0,1,0.7592,2,2,0.615
12,78,2,1,1,2,2,2,0,1,0.7712,1,1,0.883
12,79,2,1,1,1,2,1,1,1,0.536,2,2,0.4558
12,80,2,1,2,2,1,1,1,2,1.0158,1,1,0.5516
12,81,2,1,2,2,4,1,1,2,0.7496,1,1,0.7334
12,82,2,1,1,1,1,1,1,1,0.6557,2,2,0.5756
12,83,2,1,1,1,4,1,1,1,1.006,2,2,0.7339
12,84,2,1,2,2,4,2,1,2,0.8194,2,2,0.4832
12,85,2,1,2,1,1,1,0,2,0.8041,2,2,0.5959
12,86,2,1,1,2,4,2,0,1,0.7586,2,2,0.4865
12,87,2,1,2,1,6,2,0,2,0.8074,1,1,0.6631
12,88,2,1,1,1,1,2,1,1,0.8076,2,2,0.4713
12,89,2,1,2,1,3,2,0,2,0.8158,2,2,0.5435
12,90,2,1,1,2,6,1,0,1,0.8814,1,1,0.4812
12,91,2,1,1,1,5,1,1,1,0.8778,2,2,0.5416
12,92,2,1,1,1,4,2,1,1,0.8155,1,1,0.7352
12,93,2,1,1,2,1,2,0,1,0.8731,1,1,0.4728
12,94,2,1,1,2,6,2,0,1,0.9453,1,1,0.9931
12,95,2,1,2,1,5,1,0,2,0.936,1,1,0.5358
12,96,2,1,1,1,3,1,1,1,0.8214,2,2,0.6132
12,97,3,1,1,2,1,2,0,1,0.8421,1,1,0.5699
12,98,3,1,1,2,1,1,0,1,1.5242,2,2,1.892
12,99,3,1,1,2,6,1,0,1,1.0805,1,1,0.6163
12,100,3,1,2,2,4,1,1,2,0.6915,1,1,0.4833
12,101,3,1,1,2,2,2,0,1,0.7689,1,1,0.4327
12,102,3,1,1,1,1,2,1,1,0.7485,2,2,0.4762
12,103,3,1,2,2,4,2,1,2,0.7736,1,1,0.5654
12,104,3,1,2,2,5,2,1,2,0.6877,2,2,0.4795
12,105,3,1,1,2,4,2,0,1,0.8239,2,2,0.4877
12,106,3,1,1,2,5,1,0,1,1.0124,2,2,0.6122
12,107,3,1,1,1,2,1,1,1,0.6234,2,2,0.4792
12,108,3,1,1,1,3,1,1,1,0.5558,1,1,0.7316
12,109,3,1,1,1,4,2,1,7,7,2,7,7
12,110,3,1,1,1,5,1,1,1,0.7292,1,2,0.457
12,111,3,1,1,1,3,2,1,1,0.6388,1,1,0.5586
12,112,3,1,1,2,3,1,0,1,0.9487,2,2,0.5485
12,113,3,1,2,1,4,2,0,2,1.0783,1,1,0.6141
12,114,3,1,1,2,2,1,0,1,0.6253,2,2,0.4171
12,115,3,1,2,2,1,1,1,2,0.8844,2,2,0.4842
12,116,3,1,1,2,6,2,0,1,0.9331,2,2,0.5328
12,117,3,1,2,2,2,2,1,2,0.7309,2,2,0.6507
12,118,3,1,1,2,3,2,0,1,0.6436,1,1,0.5634
12,119,3,1,2,2,6,1,1,2,0.6334,2,2,0.6813
12,120,3,1,1,2,4,1,0,1,0.755,2,2,0.8668
12,121,3,1,2,1,1,1,0,2,1.1952,1,1,0.731
12,122,3,1,2,2,6,2,1,2,0.6533,1,1,0.4451
12,123,3,1,2,2,2,1,1,2,1.1448,2,2,0.5526
12,124,3,1,1,1,6,1,1,1,0.6227,1,1,0.7344
12,125,3,1,1,2,5,2,0,1,1.268,1,1,0.7398
12,126,3,1,1,1,1,1,1,7,7,2,2,0.5657
12,127,3,1,2,1,5,2,0,2,1.0602,2,2,0.596
12,128,3,1,2,1,3,1,0,2,0.7588,2,2,0.7426
12,129,3,1,2,1,6,2,0,2,0.6766,1,1,1.0444
12,130,3,1,2,2,3,1,1,2,0.6843,1,1,0.5401
12,131,3,1,1,1,4,1,1,1,0.8021,2,2,0.7219
12,132,3,1,2,1,4,1,0,2,1.2555,2,2,0.7273
12,133,3,1,2,2,1,2,1,2,0.7658,1,1,0.5576
12,134,3,1,2,1,2,1,0,2,0.8719,1,1,0.9837
12,135,3,1,2,1,3,2,0,2,0.9502,2,2,0.806
12,136,3,1,1,1,2,2,1,1,0.8732,1,1,0.665
12,137,3,1,2,2,5,1,1,2,0.9491,2,2,0.5489
12,138,3,1,1,1,6,2,1,1,0.9508,1,2,0.4226
12,139,3,1,2,1,2,2,0,2,0.7861,2,2,0.7059
12,140,3,1,1,1,5,2,1,1,0.8032,1,1,0.787
12,141,3,1,2,2,3,2,1,2,0.8947,1,1,0.8145
12,142,3,1,2,1,5,1,0,2,0.9979,1,1,0.6617
12,143,3,1,2,1,1,2,0,2,0.7421,1,1,0.7259
12,144,3,1,2,1,6,1,0,1,0.6835,2,2,0.5895
12,145,4,2,2,1,2,2,0,2,0.6133,1,2,0.5331
12,146,4,2,1,2,2,2,0,1,0.8429,1,1,0.3787
12,147,4,2,2,2,2,1,1,2,0.6253,2,2,0.9931
12,148,4,2,2,1,1,2,0,2,0.7558,2,2,0.6115
12,149,4,2,2,1,1,1,0,2,0.739,1,2,0.6588
12,150,4,2,2,1,6,2,0,2,0.659,2,2,0.5788
12,151,4,2,1,1,6,1,1,1,0.7533,1,2,0.4811
12,152,4,2,2,2,4,1,1,2,0.8498,1,2,0.5776
12,153,4,2,2,2,1,1,1,2,0.7124,1,2,1.0162
12,154,4,2,2,1,6,1,0,2,1.4836,2,1,0.6994
12,155,4,2,2,2,2,2,1,2,0.7688,2,1,0.6246
12,156,4,2,2,1,5,2,0,2,1.0323,1,1,0.7601
12,157,4,2,1,1,2,1,1,1,0.6824,2,1,0.4741
12,158,4,2,2,2,4,2,1,2,0.7266,1,1,0.7744
12,159,4,2,1,2,1,2,0,1,0.8887,2,2,0.5525
12,160,4,2,1,2,1,1,0,1,1.0705,1,1,0.6063
12,161,4,2,2,1,2,1,0,2,0.7573,2,1,0.5491
12,162,4,2,1,2,5,1,0,1,0.9869,2,1,0.4588
12,163,4,2,2,1,4,2,0,2,0.851,1,1,0.5787
12,164,4,2,1,1,4,1,1,1,0.5495,2,1,0.8534
12,165,4,2,2,2,1,2,1,2,0.7175,1,1,0.5732
12,166,4,2,1,2,5,2,0,1,0.8405,1,1,0.4403
12,167,4,2,1,2,4,1,0,1,0.6803,2,1,0.664
12,168,4,2,2,1,5,1,0,1,0.8092,2,1,0.7896
12,169,4,2,1,1,1,1,1,1,0.9215,1,1,0.5853
12,170,4,2,2,2,5,1,1,2,0.7598,1,1,0.4236
12,171,4,2,1,2,2,1,0,1,0.6231,1,1,0.4149
12,172,4,2,2,2,3,2,1,2,0.5622,2,2,0.5459
12,173,4,2,2,2,3,1,1,2,0.8198,1,7,7
12,174,4,2,1,2,3,1,0,1,0.7781,2,1,0.6339
12,175,4,2,1,1,4,2,1,1,0.6223,2,1,0.4781
12,176,4,2,1,1,1,2,1,1,0.5268,1,1,0.4466
12,177,4,2,2,2,5,2,1,2,0.5755,1,1,0.4952
12,178,4,2,1,2,3,2,0,1,0.6124,1,1,0.4682
12,179,4,2,1,1,3,2,1,1,0.5566,1,1,0.4124
12,180,4,2,1,1,5,2,1,1,0.5479,2,2,0.9797
12,181,4,2,2,1,3,2,0,2,0.6902,2,1,0.4819
12,182,4,2,1,2,4,2,0,1,0.6586,1,1,0.5144
12,183,4,2,2,2,6,2,1,2,0.6316,2,1,0.8073
12,184,4,2,1,1,6,2,1,1,0.7943,2,2,0.6501
12,185,4,2,1,1,5,1,1,1,0.6901,2,2,0.8659
12,186,4,2,1,1,2,2,1,1,0.6183,1,1,0.794
12,187,4,2,2,1,4,1,0,2,0.954,2,2,1.0018
12,188,4,2,1,1,3,1,1,1,0.8049,2,2,0.5967
12,189,4,2,1,2,6,2,0,1,0.6837,1,1,0.5395
12,190,4,2,1,2,6,1,0,1,0.9414,2,1,0.6051
12,191,4,2,2,1,3,1,0,2,1.0533,2,1,0.6531
12,192,4,2,2,2,6,1,1,2,0.9211,1,1,0.5849
13,1,1,1,1,1,4,2,1,1,0.9627,1,1,0.8185
13,2,1,1,2,1,4,1,0,2,1.4118,1,1,0.8196
13,3,1,1,1,1,6,1,1,1,1.3989,1,1,0.6786
13,4,1,1,1,2,2,2,0,7,7,2,2,0.7031
13,5,1,1,1,2,4,2,0,1,1.3359,2,2,1.3197
13,6,1,1,2,1,2,2,0,2,0.753,2,2,0.8008
13,7,1,1,1,2,5,2,0,1,1.9038,2,2,1.5676
13,8,1,1,2,2,2,2,1,2,1.3937,1,1,1.8895
13,9,1,1,2,1,1,1,0,2,1.9623,2,2,0.9861
13,10,1,1,2,2,5,1,1,2,1.4006,2,2,0.5523
13,11,1,1,1,1,6,2,1,1,1.1344,1,1,0.9262
13,12,1,1,1,1,2,1,1,1,1.3996,1,1,0.7433
13,13,1,1,2,1,6,1,0,2,1.0614,2,2,0.5971
13,14,1,1,2,1,5,1,0,2,1.1962,1,1,0.5399
13,15,1,1,2,1,3,2,0,2,1.0867,2,2,0.6225
13,16,1,1,1,2,6,1,0,1,1.2502,1,1,0.722
13,17,1,1,1,2,4,1,0,1,1.1445,2,2,0.5523
13,18,1,1,2,1,6,2,0,2,1.3786,2,2,0.7864
13,19,1,1,2,2,3,1,1,2,1.1331,1,2,1.0529
13,20,1,1,1,2,3,1,0,1,1.3571,1,2,1.0208
13,21,1,1,1,1,5,2,1,1,0.941,2,2,0.7328
13,22,1,1,1,2,2,1,0,1,1.0744,1,1,0.7382
13,23,1,1,2,2,6,1,1,2,1.3997,1,2,1.1915
13,24,1,1,2,1,5,2,0,2,0.8543,2,2,0.646
13,25,1,1,2,2,2,1,1,2,0.878,2,2,0.6698
13,26,1,1,1,2,1,2,0,1,1.8264,2,2,1.1062
13,27,1,1,2,2,5,2,1,2,0.8676,2,2,0.6593
13,28,1,1,1,1,4,1,1,1,1.4437,1,1,0.7875
13,29,1,1,1,1,3,2,1,1,1.1982,1,1,0.734
13,30,1,1,2,1,4,2,0,2,0.7556,1,1,0.6114
13,31,1,1,2,2,1,1,1,2,0.9427,1,1,0.5424
13,32,1,1,2,2,6,2,1,2,0.8163,1,1,0.8
13,33,1,1,1,1,1,2,1,1,0.8673,2,2,0.659
13,34,1,1,1,2,5,1,0,1,1.0072,1,2,0.799
13,35,1,1,2,2,3,2,1,2,0.931,1,1,0.6587
13,36,1,1,1,2,1,1,0,1,0.8672,1,1,0.723
13,37,1,1,1,1,5,1,1,1,0.6805,1,1,0.6003
13,38,1,1,2,2,4,2,1,2,0.8793,1,1,0.4791
13,39,1,1,2,2,1,2,1,2,0.7595,2,2,0.6154
13,40,1,1,1,2,6,2,0,1,0.8185,2,2,0.6742
13,41,1,1,1,1,2,2,1,1,1.191,1,1,0.5988
13,42,1,1,2,1,2,1,0,2,0.866,2,2,0.5298
13,43,1,1,1,1,1,1,1,1,0.8154,1,1,0.6712
13,44,1,1,2,1,1,2,0,2,1.0076,2,2,0.6714
13,45,1,1,2,1,3,1,0,2,0.8798,2,2,0.7356
13,46,1,1,1,2,3,2,0,2,0.8212,2,2,0.5338
13,47,1,1,1,1,3,1,1,1,0.9996,2,2,0.5354
13,48,1,1,2,2,4,1,1,2,0.774,2,2,0.5017
13,49,2,2,2,2,6,1,1,2,0.8696,2,2,0.8535
13,50,2,2,1,2,3,2,0,1,0.8759,1,1,0.7957
13,51,2,2,1,1,6,2,1,2,0.7584,2,2,0.6579
13,52,2,2,2,2,4,1,1,2,0.7501,1,1,0.7339
13,53,2,2,2,2,1,1,1,2,0.7555,2,1,0.7392
13,54,2,2,1,2,5,2,0,1,1.4368,1,1,1.1007
13,55,2,2,2,1,5,2,0,2,0.8097,2,2,1.0495
13,56,2,2,1,1,5,1,1,1,0.8696,1,1,1.5574
13,57,2,2,2,1,4,2,0,2,0.7723,2,1,1.1401
13,58,2,2,2,2,1,2,1,2,0.7219,1,1,0.8337
13,59,2,2,1,1,4,2,1,1,1.2091,2,1,0.7449
13,60,2,2,1,1,5,2,1,1,0.8547,1,1,0.9025
13,61,2,2,2,1,3,2,0,2,0.7594,1,2,1.9592
13,62,2,2,2,1,6,1,0,2,0.938,1,1,0.9858
13,63,2,2,1,1,2,2,1,1,0.8125,1,1,0.9883
13,64,2,2,1,1,4,1,1,1,0.768,1,1,0.8798
13,65,2,2,1,1,1,2,1,1,0.9573,2,2,1.0691
13,66,2,2,1,2,2,1,0,1,0.7613,1,1,0.873
13,67,2,2,1,2,6,2,0,1,0.6254,2,2,0.8652
13,68,2,2,2,2,5,1,1,2,0.6934,2,1,1.5092
13,69,2,2,1,2,2,2,0,1,0.7902,1,2,1.542
13,70,2,2,1,1,1,1,1,1,0.648,1,1,0.7597
13,71,2,2,1,2,5,1,0,1,0.746,2,2,0.6658
13,72,2,2,1,2,1,2,0,1,1.2112,1,1,0.811
13,73,2,2,2,2,3,1,1,2,0.7031,1,1,1.3909
13,74,2,2,2,2,3,2,1,2,0.6256,2,2,0.8014
13,75,2,2,2,2,5,2,1,2,0.4964,1,1,0.9281
13,76,2,2,1,1,2,1,1,7,7,2,2,1.3977
13,77,2,2,2,2,2,1,1,2,0.9496,1,1,0.8053
13,78,2,2,2,1,5,1,0,2,0.6622,1,1,1.03
13,79,2,2,1,2,1,1,0,2,0.8031,2,1,0.5915
13,80,2,2,2,1,1,1,0,1,0.9521,1,1,0.6516
13,81,2,2,2,1,3,1,0,2,0.7437,2,1,0.7276
13,82,2,2,1,1,3,1,1,1,0.5409,2,2,0.7167
13,83,2,2,2,2,6,2,1,2,0.75,2,2,0.6698
13,84,2,2,2,1,4,1,0,2,0.7502,2,2,0.798
13,85,2,2,2,2,2,2,1,2,0.557,1,1,0.9248
13,86,2,2,1,1,6,1,1,1,0.7111,1,1,0.8228
13,87,2,2,1,2,4,2,0,1,0.8025,1,1,0.7223
13,88,2,2,2,1,1,2,0,2,0.6564,2,2,0.5761
13,89,2,2,1,2,3,1,0,1,0.6867,2,1,1.4385
13,90,2,2,2,1,2,1,0,2,0.7261,1,1,0.5819
13,91,2,2,2,1,6,2,0,2,0.6285,2,2,0.6122
13,92,2,2,1,2,4,1,0,1,0.7397,2,1,0.7875
13,93,2,2,1,1,3,2,1,1,1.0945,2,1,0.6303
13,94,2,2,2,2,4,2,1,2,0.5378,1,1,0.9696
13,95,2,2,1,2,6,1,0,1,0.9008,2,1,0.8205
13,96,2,2,2,1,2,2,0,2,0.592,2,2,0.8958
13,97,3,2,2,1,6,2,0,2,0.7651,2,2,0.5569
13,98,3,2,1,1,1,2,1,1,0.627,1,1,0.8668
13,99,3,2,1,2,2,1,0,1,0.6949,2,2,0.8067
13,100,3,2,1,2,4,2,0,1,0.8857,2,1,0.6775
13,101,3,2,1,2,4,1,0,1,0.6829,2,1,1.1786
13,102,3,2,1,1,2,2,1,1,0.6494,1,1,0.6331
13,103,3,2,2,1,2,1,0,2,1.3248,1,1,1.8846
13,104,3,2,2,2,4,1,1,2,0.7532,1,1,1.3129
13,105,3,2,2,1,5,2,0,2,0.6469,1,2,0.7587
13,106,3,2,1,2,1,1,0,1,0.7928,1,1,1.0966
13,107,3,2,1,1,4,1,1,1,0.9976,1,1,0.5974
13,108,3,2,2,2,5,2,1,2,0.9404,2,1,0.9242
13,109,3,2,2,2,1,2,1,2,0.6185,2,2,0.7303
13,110,3,2,1,1,2,1,1,1,0.6121,2,1,0.7879
13,111,3,2,2,2,6,2,1,2,0.6469,2,2,0.9507
13,112,3,2,2,2,2,1,1,2,0.6325,1,1,1.1282
13,113,3,2,2,1,1,1,0,2,0.6858,2,2,0.9256
13,114,3,2,2,2,4,2,1,2,0.6949,2,2,0.7427
13,115,3,2,1,1,3,2,1,1,0.7525,1,1,0.9283
13,116,3,2,2,1,4,2,0,2,0.6741,2,2,1.1059
13,117,3,2,2,2,5,1,1,2,0.7509,2,2,2.3347
13,118,3,2,2,2,3,2,1,2,0.6451,1,1,0.6288
13,119,3,2,1,2,6,1,0,1,1.0006,2,2,0.9843
13,120,3,2,1,1,5,1,1,1,0.5551,1,1,0.6668
13,121,3,2,1,2,3,2,0,1,0.9393,2,2,0.283
13,122,3,2,2,1,1,2,0,2,0.996,2,2,1.1078
13,123,3,2,1,2,5,2,0,1,0.7528,2,1,0.6086
13,124,3,2,1,1,6,1,1,1,0.6676,2,2,1.0354
13,125,3,2,2,2,1,1,1,2,0.8033,1,1,0.7231
13,126,3,2,1,1,5,2,1,1,0.6925,2,1,0.6763
13,127,3,2,1,2,1,2,0,1,0.7927,1,1,2.3765
13,128,3,2,1,1,6,2,1,1,0.6868,2,1,0.6706
13,129,3,2,2,1,3,2,0,2,0.787,2,2,0.4508
13,130,3,2,1,2,6,2,0,1,0.743,2,1,0.7908
13,131,3,2,1,2,2,2,0,1,0.7895,1,1,0.8373
13,132,3,2,2,2,6,1,1,7,7,1,2,1.5813
13,133,3,2,1,1,4,2,1,1,0.6976,1,1,0.9374
13,134,3,2,2,1,2,2,0,2,1.911,1,1,0.9348
13,135,3,2,1,2,5,1,0,7,7,2,2,0.8283
13,136,3,2,2,1,3,1,0,7,7,1,2,0.2518
13,137,3,2,2,1,6,1,0,2,0.7918,1,1,0.9676
13,138,3,2,2,2,3,1,1,2,1.0739,2,1,0.6737
13,139,3,2,2,1,4,1,0,2,0.7262,1,1,0.7739
13,140,3,2,2,2,2,2,1,7,7,1,1,1.0124
13,141,3,2,1,1,1,1,1,2,1.5248,1,1,0.4675
13,142,3,2,1,2,3,1,0,1,0.7479,2,2,0.7957
13,143,3,2,1,1,3,1,1,1,0.8276,1,2,0.8114
13,144,3,2,2,1,5,1,0,2,0.8271,1,1,0.7469
13,145,4,1,2,1,1,2,0,2,0.7794,2,2,0.5072
13,146,4,1,2,2,5,2,1,2,0.717,1,2,1.4048
13,147,4,1,1,2,3,1,0,1,0.7917,1,1,0.8395
13,148,4,1,1,2,4,2,0,1,1.2672,1,1,0.675
13,149,4,1,1,1,2,2,1,1,0.7436,2,2,0.3434
13,150,4,1,2,2,3,1,1,2,0.7533,2,2,0.6731
13,151,4,1,1,2,6,2,0,1,0.8175,2,2,0.6093
13,152,4,1,1,2,1,2,0,1,0.6205,1,1,0.6043
13,153,4,1,1,1,1,1,1,1,0.8075,1,1,1.6873
13,154,4,1,2,1,5,2,0,2,0.9648,2,2,0.6286
13,155,4,1,2,1,2,1,0,7,7,1,1,0.6883
13,156,4,1,2,1,4,1,0,7,7,1,2,0.7876
13,157,4,1,1,2,1,1,0,1,0.7224,2,2,0.5782
13,158,4,1,2,2,2,1,1,1,1.9047,1,2,0.5349
13,159,4,1,2,1,6,1,0,7,7,2,2,0.7248
13,160,4,1,1,1,4,1,1,1,0.7582,2,2,0.2299
13,161,4,1,1,1,4,2,1,1,0.5654,1,2,0.8692
13,162,4,1,1,1,1,2,1,1,0.9254,1,1,1.5492
13,163,4,1,1,1,6,1,1,1,0.6831,1,7,7
13,164,4,1,2,2,1,1,1,7,7,2,2,0.4076
13,165,4,1,2,2,6,1,1,2,1.3516,2,2,0.4393
13,166,4,1,1,2,5,2,0,7,7,1,2,0.4314
13,167,4,1,1,1,3,2,1,1,0.6956,2,2,0.6793
