SN,Trial,Block,PercLoad,Targ,Flnk,TargPos,FlnkPos,Congruency,Resp,RT
1,1,1,1,2,2,2,2,1,7,7
1,2,1,1,2,2,4,2,1,2,0.6374
1,3,1,1,2,1,6,1,0,1,0.4714
1,4,1,1,2,1,3,2,0,2,0.7791
1,5,1,1,1,2,3,2,0,1,0.6
1,6,1,1,2,1,2,1,0,1,0.5973
1,7,1,1,1,2,1,1,0,2,0.8227
1,8,1,1,2,2,4,1,1,1,0.7369
1,9,1,1,1,2,3,1,0,1,0.9086
1,10,1,1,2,1,2,2,0,2,0.6523
1,11,1,1,1,1,6,2,1,1,0.7828
1,12,1,1,1,1,3,2,1,1,0.5279
1,13,1,1,1,2,2,1,0,2,0.4913
1,14,1,1,2,1,4,2,0,1,0.7703
1,15,1,1,2,1,5,2,0,2,0.4992
1,16,1,1,2,2,1,2,1,7,7
1,17,1,1,1,1,5,1,1,1,0.6488
1,18,1,1,1,1,5,2,1,1,0.4762
1,19,1,1,1,2,6,2,0,1,0.4632
1,20,1,1,2,1,4,1,0,2,0.6017
1,21,1,1,2,1,6,2,0,1,0.7271
1,22,1,1,2,2,2,1,1,2,0.695
1,23,1,1,1,1,2,1,1,1,0.5394
1,24,1,1,2,2,6,2,1,2,0.5315
1,25,1,1,1,1,2,2,1,1,0.5995
1,26,1,1,1,1,6,1,1,1,0.5601
1,27,1,1,1,1,1,2,1,1,0.5405
1,28,1,1,1,1,4,2,1,1,0.3929
1,29,1,1,1,2,2,2,0,2,0.3865
1,30,1,1,1,2,1,2,0,1,0.5676
1,31,1,1,2,1,1,2,0,1,0.5649
1,32,1,1,1,2,5,2,0,1,1.3493
1,33,1,1,1,2,5,1,0,1,0.5297
1,34,1,1,2,2,5,2,1,2,0.4866
1,35,1,1,1,2,4,1,0,1,0.5634
1,36,1,1,1,1,1,1,1,1,0.596
1,37,1,1,2,2,3,2,1,2,0.5816
1,38,1,1,1,2,6,1,0,1,0.6664
1,39,1,1,2,1,1,1,0,1,0.8492
1,40,1,1,2,2,1,1,1,2,0.6877
1,41,1,1,2,1,5,1,0,2,0.7946
1,42,1,1,2,2,6,1,1,2,0.4875
1,43,1,1,1,2,4,2,0,1,0.4862
1,44,1,1,1,1,4,1,1,1,0.4615
1,45,1,1,1,1,3,1,1,1,0.5397
1,46,1,1,2,2,5,1,1,2,0.5201
1,47,1,1,2,1,3,1,0,1,0.7043
1,48,1,1,2,2,3,1,1,2,0.5155
1,49,2,2,2,2,5,2,1,7,7
1,50,2,2,1,2,5,2,0,2,0.9013
1,51,2,2,1,2,2,1,0,2,1.5366
1,52,2,2,2,2,6,2,1,1,1.1406
1,53,2,2,2,2,5,1,1,2,1.3485
1,54,2,2,1,1,6,1,1,1,0.7966
1,55,2,2,2,1,2,1,0,2,0.9897
1,56,2,2,1,1,2,2,1,2,1.2269
1,57,2,2,2,2,3,1,1,2,0.945
1,58,2,2,2,1,1,2,0,2,1.1248
1,59,2,2,2,1,2,2,0,1,1.6167
1,60,2,2,2,2,6,1,1,2,1.4584
1,61,2,2,2,1,4,1,0,2,0.841
1,62,2,2,2,1,6,1,0,2,1.0393
1,63,2,2,1,2,1,1,0,2,1.1133
1,64,2,2,2,1,4,2,0,2,0.6576
1,65,2,2,2,1,3,1,0,1,0.6484
1,66,2,2,2,2,1,2,1,2,0.6347
1,67,2,2,1,1,3,2,1,2,0.777
1,68,2,2,1,1,5,2,1,1,0.686
1,69,2,2,2,2,2,2,1,2,0.6297
1,70,2,2,2,2,2,1,1,2,0.7079
1,71,2,2,1,2,4,1,0,1,0.6516
1,72,2,2,1,1,6,2,1,1,0.7064
1,73,2,2,1,2,5,1,0,1,0.6618
1,74,2,2,2,2,3,2,1,2,0.6644
1,75,2,2,2,1,5,2,0,1,0.7308
1,76,2,2,1,2,3,2,0,2,1.0592
1,77,2,2,1,2,3,1,0,1,0.6219
1,78,2,2,1,2,2,2,0,2,0.6597
1,79,2,2,1,1,2,1,1,1,1.0587
1,80,2,2,2,2,1,1,1,1,0.7186
1,81,2,2,2,2,4,1,1,2,0.9544
1,82,2,2,1,1,1,1,1,1,1.0349
1,83,2,2,1,1,4,1,1,1,1.301
1,84,2,2,2,2,4,2,1,2,1.1042
1,85,2,2,2,1,1,1,0,7,7
1,86,2,2,1,2,4,2,0,1,1.0613
1,87,2,2,2,1,6,2,0,2,0.78
1,88,2,2,1,1,1,2,1,2,0.9209
1,89,2,2,2,1,3,2,0,7,7
1,90,2,2,1,2,6,1,0,1,1.5097
1,91,2,2,1,1,5,1,1,1,0.6011
1,92,2,2,1,1,4,2,1,1,0.5226
1,93,2,2,1,2,1,2,0,1,0.6428
1,94,2,2,1,2,6,2,0,2,0.849
1,95,2,2,2,1,5,1,0,2,0.8156
1,96,2,2,1,1,3,1,1,2,0.8453
1,97,3,2,1,2,1,2,0,1,0.932
1,98,3,2,1,2,1,1,0,1,0.5359
1,99,3,2,1,2,6,1,0,1,0.5398
1,100,3,2,2,2,4,1,1,2,0.596
1,101,3,2,1,2,2,2,0,1,1.6291
1,102,3,2,1,1,1,2,1,1,0.5387
1,103,3,2,2,2,4,2,1,2,0.8326
1,104,3,2,2,2,5,2,1,1,0.8388
1,105,3,2,1,2,4,2,0,1,0.8288
1,106,3,2,1,2,5,1,0,1,0.6027
1,107,3,2,1,1,2,1,1,2,1.1759
1,108,3,2,1,1,3,1,1,2,0.8652
1,109,3,2,1,1,4,2,1,1,0.9362
1,110,3,2,1,1,5,1,1,1,0.5166
1,111,3,2,1,1,3,2,1,1,0.6367
1,112,3,2,1,2,3,1,0,1,0.5348
1,113,3,2,2,1,4,2,0,2,0.5387
1,114,3,2,1,2,2,1,0,2,0.7986
1,115,3,2,2,2,1,1,1,2,1.6324
1,116,3,2,1,2,6,2,0,1,0.7746
1,117,3,2,2,2,2,2,1,2,0.8801
1,118,3,2,1,2,3,2,0,1,1.0196
1,119,3,2,2,2,6,1,1,2,0.9015
1,120,3,2,1,2,4,1,0,1,0.8372
1,121,3,2,2,1,1,1,0,2,0.5993
1,122,3,2,2,2,6,2,1,2,0.6996
1,123,3,2,2,2,2,1,1,2,0.8757
1,124,3,2,1,1,6,1,1,1,0.5149
1,125,3,2,1,2,5,2,0,1,0.5711
1,126,3,2,1,1,1,1,1,1,0.5449
1,127,3,2,2,1,5,2,0,1,0.537
1,128,3,2,2,1,3,1,0,2,0.833
1,129,3,2,2,1,6,2,0,1,0.7348
1,130,3,2,2,2,3,1,1,2,0.8829
1,131,3,2,1,1,4,1,1,1,0.5743
1,132,3,2,2,1,4,1,0,2,0.9034
1,133,3,2,2,2,1,2,1,1,0.9671
1,134,3,2,2,1,2,1,0,1,1.3919
1,135,3,2,2,1,3,2,0,2,1.0849
1,136,3,2,1,1,2,2,1,1,0.9081
1,137,3,2,2,2,5,1,1,2,0.7275
1,138,3,2,1,1,6,2,1,1,0.7117
1,139,3,2,2,1,2,2,0,2,0.8356
1,140,3,2,1,1,5,2,1,2,0.7543
1,141,3,2,2,2,3,2,1,2,1.3792
1,142,3,2,2,1,5,1,0,2,1.0479
1,143,3,2,2,1,1,2,0,1,0.8542
1,144,3,2,2,1,6,1,0,2,0.8207
1,145,4,1,2,1,2,2,0,2,0.8638
1,146,4,1,1,2,2,2,0,1,0.5891
1,147,4,1,2,2,2,1,1,2,0.8189
1,148,4,1,2,1,1,2,0,2,0.7729
1,149,4,1,2,1,1,1,0,2,0.7505
1,150,4,1,2,1,6,2,0,2,0.5426
1,151,4,1,1,1,6,1,1,1,0.5348
1,152,4,1,2,2,4,1,1,2,0.7307
1,153,4,1,2,2,1,1,1,2,0.4588
1,154,4,1,2,1,6,1,0,2,0.4458
1,155,4,1,2,2,2,2,1,2,0.5726
1,156,4,1,2,1,5,2,0,2,0.4655
1,157,4,1,1,1,2,1,1,1,0.5334
1,158,4,1,2,2,4,2,1,2,0.5492
1,159,4,1,1,2,1,2,0,2,0.745
1,160,4,1,1,2,1,1,0,1,1.1492
1,161,4,1,2,1,2,1,0,2,0.5936
1,162,4,1,1,2,5,1,0,1,0.8469
1,163,4,1,2,1,4,2,0,2,0.5854
1,164,4,1,1,1,4,1,1,1,0.5944
1,165,4,1,2,2,1,2,1,2,0.5447
1,166,4,1,1,2,5,2,0,1,0.6649
1,167,4,1,1,2,4,1,0,1,0.4754
1,168,4,1,2,1,5,1,0,2,0.4741
1,169,4,1,1,1,1,1,1,1,0.6009
1,170,4,1,2,2,5,1,1,2,0.4467
1,171,4,1,1,2,2,1,0,7,7
1,172,4,1,2,2,3,2,1,2,0.6147
1,173,4,1,2,2,3,1,1,2,0.6811
1,174,4,1,1,2,3,1,0,1,0.5321
1,175,4,1,1,1,4,2,1,1,0.5361
1,176,4,1,1,1,1,2,1,1,0.5518
1,177,4,1,2,2,5,2,1,2,0.4799
1,178,4,1,1,2,3,2,0,2,0.5191
1,179,4,1,1,1,3,2,1,2,0.8151
1,180,4,1,1,1,5,2,1,1,1.1773
1,181,4,1,2,1,3,2,0,2,0.5864
1,182,4,1,1,2,4,2,0,1,0.683
1,183,4,1,2,2,6,2,1,2,0.5627
1,184,4,1,1,1,6,2,1,1,0.5953
1,185,4,1,1,1,5,1,1,1,0.5522
1,186,4,1,1,1,2,2,1,1,0.4568
1,187,4,1,2,1,4,1,0,2,0.5196
1,188,4,1,1,1,3,1,1,1,0.5875
1,189,4,1,1,2,6,2,0,1,0.4855
1,190,4,1,1,2,6,1,0,1,0.4843
1,191,4,1,2,1,3,1,0,2,0.5471
1,192,4,1,2,2,6,1,1,1,0.551
1,193,5,2,2,2,3,2,1,7,7
1,194,5,2,2,2,5,2,1,2,0.991
1,195,5,2,2,1,1,2,0,2,0.7686
1,196,5,2,2,2,2,2,1,1,1.3574
1,197,5,2,2,2,6,1,1,2,1.1666
1,198,5,2,1,2,5,1,0,1,0.675
1,199,5,2,1,2,5,2,0,1,0.6775
1,200,5,2,1,1,1,2,1,1,0.6682
1,201,5,2,1,2,1,2,0,2,0.7987
1,202,5,2,2,1,6,1,0,2,1.0683
1,203,5,2,1,1,4,2,1,1,1.107
1,204,5,2,2,2,4,2,1,2,1.0346
1,205,5,2,1,1,6,2,1,1,0.829
1,206,5,2,2,2,5,1,1,2,1.2546
1,207,5,2,2,2,1,1,1,2,0.6166
1,208,5,2,1,1,2,2,1,1,0.9862
1,209,5,2,2,1,6,2,0,2,1.1947
1,210,5,2,1,1,4,1,1,1,0.6442
1,211,5,2,2,1,3,1,0,2,1.1587
1,212,5,2,2,1,4,2,0,2,0.5913
1,213,5,2,1,2,6,2,0,1,0.8734
1,214,5,2,1,2,2,2,0,2,1.3798
1,215,5,2,2,2,1,2,1,2,0.8926
1,216,5,2,2,1,1,1,0,2,0.8636
1,217,5,2,1,2,3,2,0,1,0.8058
1,218,5,2,1,2,1,1,0,1,0.5914
1,219,5,2,1,1,6,1,1,1,0.5247
1,220,5,2,1,1,1,1,1,1,0.5926
1,221,5,2,2,2,6,2,1,2,0.7231
1,222,5,2,1,1,2,1,1,1,1.2546
1,223,5,2,2,1,2,1,0,2,1.3845
1,224,5,2,2,2,3,1,1,1,0.7974
1,225,5,2,2,2,4,1,1,2,0.5902
1,226,5,2,2,1,5,1,0,2,0.6515
1,227,5,2,1,2,4,2,0,1,0.5783
1,228,5,2,1,1,5,2,1,1,0.5521
1,229,5,2,1,1,5,1,1,1,0.5089
1,230,5,2,1,1,3,1,1,2,0.6644
1,231,5,2,2,1,5,2,0,2,0.9066
1,232,5,2,2,2,2,1,1,1,1.1101
1,233,5,2,1,2,3,1,0,1,1.0215
1,234,5,2,1,2,2,1,0,2,0.8395
1,235,5,2,1,2,6,1,0,1,0.5617
1,236,5,2,1,2,4,1,0,1,0.5591
1,237,5,2,1,1,3,2,1,1,0.5277
1,238,5,2,2,1,2,2,0,2,0.8634
1,239,5,2,2,1,4,1,0,2,0.8579
1,240,5,2,2,1,3,2,0,2,0.7244
1,241,6,1,2,2,1,1,1,2,0.8767
1,242,6,1,1,1,5,2,1,1,0.7196
1,243,6,1,1,1,6,1,1,1,0.5235
1,244,6,1,1,1,1,1,1,1,0.5156
1,245,6,1,1,1,1,2,1,1,0.4961
1,246,6,1,1,2,2,2,0,1,0.547
1,247,6,1,1,1,2,2,1,1,0.487
1,248,6,1,2,2,4,2,1,2,0.6138
1,249,6,1,2,1,4,1,0,2,0.6515
1,250,6,1,1,1,3,1,1,1,0.6423
1,251,6,1,2,1,1,2,0,7,7
1,252,6,1,2,1,1,1,0,2,0.6338
1,253,6,1,2,1,4,2,0,2,0.5488
1,254,6,1,1,2,1,2,0,1,0.4887
1,255,6,1,1,2,5,1,0,1,0.6794
1,256,6,1,2,1,5,1,0,2,0.6584
1,257,6,1,2,1,3,1,0,2,0.5446
1,258,6,1,2,2,5,2,1,2,0.4611
1,259,6,1,1,2,2,1,0,1,0.9078
1,260,6,1,1,2,4,1,0,1,0.4595
1,261,6,1,1,1,3,2,1,1,0.4752
1,262,6,1,1,2,5,2,0,1,0.4217
1,263,6,1,1,1,4,1,1,1,0.4793
1,264,6,1,2,2,3,1,1,2,0.4781
1,265,6,1,2,2,2,1,1,2,0.6049
1,266,6,1,2,1,6,2,0,2,0.5146
1,267,6,1,1,2,6,2,0,1,0.5303
1,268,6,1,2,2,4,1,1,2,0.6505
1,269,6,1,2,2,2,2,1,2,0.5419
1,270,6,1,1,1,5,1,1,1,0.5458
1,271,6,1,2,2,1,2,1,2,0.602
1,272,6,1,1,2,4,2,0,1,0.6751
1,273,6,1,1,2,3,2,0,2,0.4908
1,274,6,1,2,1,2,2,0,2,0.6587
1,275,6,1,2,1,2,1,0,2,1.3416
1,276,6,1,2,1,5,2,0,2,0.5742
1,277,6,1,2,1,3,2,0,2,0.4841
1,278,6,1,2,2,6,1,1,2,0.663
1,279,6,1,1,2,1,1,0,2,0.4736
1,280,6,1,2,2,6,2,1,2,0.6857
1,281,6,1,2,1,6,1,0,2,0.6647
1,282,6,1,1,1,4,2,1,1,0.7076
1,283,6,1,2,2,3,2,1,2,0.5233
1,284,6,1,1,1,6,2,1,1,0.5272
1,285,6,1,1,2,6,1,0,1,0.6879
1,286,6,1,1,1,2,1,1,1,0.6668
1,287,6,1,1,2,3,1,0,1,0.6053
1,288,6,1,2,2,5,1,1,2,0.5387
1,289,7,1,1,1,6,2,1,2,0.8524
1,290,7,1,2,1,2,1,0,2,0.8594
1,291,7,1,1,2,4,1,0,2,0.9583
1,292,7,1,1,1,4,1,1,1,1.0629
1,293,7,1,1,1,4,2,1,1,0.4266
1,294,7,1,2,2,4,1,1,2,0.4724
1,295,7,1,1,2,2,2,0,1,1.3789
1,296,7,1,2,1,5,1,0,2,0.5998
1,297,7,1,2,2,6,2,1,2,0.5853
1,298,7,1,2,2,2,2,1,2,0.6466
1,299,7,1,2,1,6,1,0,2,1.5334
1,300,7,1,1,2,6,2,0,1,0.8337
1,301,7,1,2,2,2,1,1,2,0.6884
1,302,7,1,1,1,3,2,1,1,0.7314
1,303,7,1,1,2,1,1,0,1,1.0472
1,304,7,1,2,2,1,1,1,2,0.6497
1,305,7,1,1,2,5,2,0,1,0.7802
1,306,7,1,2,1,3,2,0,2,0.7055
1,307,7,1,2,1,4,2,0,2,0.5734
1,308,7,1,2,2,4,2,1,2,0.4546
1,309,7,1,2,2,5,2,1,2,0.4298
1,310,7,1,1,1,2,2,1,1,0.6087
1,311,7,1,2,2,1,2,1,2,0.6061
1,312,7,1,2,2,3,1,1,2,0.5277
1,313,7,1,1,2,2,1,0,1,0.6073
1,314,7,1,1,2,3,1,0,2,0.6452
1,315,7,1,2,2,6,1,1,7,7
1,316,7,1,1,1,5,1,1,1,1.2016
1,317,7,1,1,2,4,2,0,1,1.18
1,318,7,1,2,1,1,1,0,2,0.6648
1,319,7,1,2,1,5,2,0,2,0.5511
1,320,7,1,2,1,1,2,0,2,0.6712
1,321,7,1,1,1,5,2,1,1,0.598
1,322,7,1,1,2,6,1,0,2,0.7233
1,323,7,1,2,1,4,1,0,2,0.8715
1,324,7,1,2,1,3,1,0,2,0.6033
1,325,7,1,1,1,6,1,1,1,0.5654
1,326,7,1,1,2,1,2,0,1,0.598
1,327,7,1,2,2,3,2,1,2,0.4909
1,328,7,1,1,1,1,1,1,1,0.4948
1,329,7,1,2,2,5,1,1,2,0.4583
1,330,7,1,1,2,5,1,0,1,0.7653
1,331,7,1,2,1,2,2,0,2,0.6906
1,332,7,1,1,2,3,2,0,2,0.5821
1,333,7,1,1,1,2,1,1,1,0.6441
1,334,7,1,1,1,1,2,1,1,0.5421
1,335,7,1,1,1,3,1,1,1,0.5225
1,336,7,1,2,1,6,2,0,2,0.6022
1,337,8,2,1,1,1,2,1,2,1.2567
1,338,8,2,1,2,2,1,0,2,1.2241
1,339,8,2,2,2,4,2,1,1,1.0112
1,340,8,2,2,1,6,1,0,2,0.7659
1,341,8,2,1,1,3,2,1,7,7
1,342,8,2,2,2,6,1,1,2,1.3438
1,343,8,2,1,1,6,1,1,1,1.2399
1,344,8,2,1,1,2,2,1,2,0.974
1,345,8,2,1,1,4,2,1,1,0.7
1,346,8,2,2,1,1,1,0,2,0.9285
1,347,8,2,2,1,5,2,0,2,0.6772
1,348,8,2,1,1,6,2,1,1,0.5282
1,349,8,2,2,2,6,2,1,2,0.5726
1,350,8,2,1,1,3,1,1,1,1.4372
1,351,8,2,2,1,6,2,0,2,0.7912
1,352,8,2,1,2,4,1,0,1,0.9085
1,353,8,2,2,2,1,1,1,2,0.5881
1,354,8,2,2,1,2,2,0,1,0.6377
1,355,8,2,1,1,1,1,1,2,1.0602
1,356,8,2,2,2,3,2,1,7,7
1,357,8,2,1,2,5,2,0,1,1.5418
1,358,8,2,1,1,4,1,1,1,0.5338
1,359,8,2,2,1,3,1,0,1,1.6257
1,360,8,2,2,1,4,2,0,2,1.2637
1,361,8,2,1,2,2,2,0,1,1.2186
1,362,8,2,1,2,4,2,0,1,0.8248
1,363,8,2,1,2,1,1,0,1,0.6156
1,364,8,2,2,1,5,1,0,2,0.6755
1,365,8,2,1,2,3,1,0,1,0.6662
1,366,8,2,2,1,1,2,0,2,0.6687
1,367,8,2,2,2,5,2,1,1,0.6072
1,368,8,2,1,1,5,2,1,2,0.5008
1,369,8,2,1,2,6,2,0,1,0.6165
1,370,8,2,1,2,3,2,0,1,0.5146
1,371,8,2,1,1,5,1,1,1,0.4831
1,372,8,2,2,2,5,1,1,2,0.7313
1,373,8,2,2,2,1,2,1,1,1.3672
1,374,8,2,1,2,5,1,0,1,1.1478
1,375,8,2,2,2,4,1,1,2,0.8599
1,376,8,2,2,2,2,1,1,1,1.2435
1,377,8,2,2,1,3,2,0,2,1.0829
1,378,8,2,1,2,1,2,0,1,1.0057
1,379,8,2,2,1,2,1,0,2,0.8121
1,380,8,2,2,2,3,1,1,2,1.342
1,381,8,2,1,1,2,1,1,1,1.0564
1,382,8,2,2,2,2,2,1,2,0.7516
1,383,8,2,2,1,4,1,0,2,0.6717
1,384,8,2,1,2,6,1,0,1,0.6507
2,1,1,2,2,2,6,2,1,1,1.2512
2,2,1,2,1,2,5,2,0,1,0.6661
2,3,1,2,2,1,2,2,0,2,0.6827
2,4,1,2,1,2,3,1,0,1,0.7139
2,5,1,2,1,2,2,2,0,1,0.6576
2,6,1,2,2,2,6,1,1,2,0.7359
2,7,1,2,2,1,6,1,0,2,0.8597
2,8,1,2,2,2,3,1,1,2,0.8712
2,9,1,2,1,1,4,2,1,1,0.6501
2,10,1,2,1,2,1,1,0,1,0.6121
2,11,1,2,2,2,4,1,1,2,0.9817
2,12,1,2,2,1,6,2,0,2,1.0505
2,13,1,2,2,2,2,1,1,2,0.9848
2,14,1,2,1,1,3,1,1,1,0.4776
2,15,1,2,2,1,2,1,0,2,0.9884
2,16,1,2,2,2,4,2,1,2,0.8416
2,17,1,2,2,1,1,2,0,2,1.2436
2,18,1,2,2,2,3,2,1,2,0.7336
2,19,1,2,2,1,5,2,0,2,0.9855
2,20,1,2,2,2,1,2,1,2,0.8793
2,21,1,2,2,1,4,2,0,2,0.606
2,22,1,2,1,1,2,1,1,1,0.6673
2,23,1,2,1,1,2,2,1,1,0.7912
2,24,1,2,1,1,6,1,1,1,0.5246
2,25,1,2,2,1,1,1,0,2,0.872
2,26,1,2,1,1,1,2,1,1,1.227
2,27,1,2,2,1,3,1,0,2,0.781
2,28,1,2,1,1,5,2,1,1,0.974
2,29,1,2,2,2,1,1,1,2,0.7986
2,30,1,2,1,2,4,1,0,1,0.5201
2,31,1,2,1,2,6,2,0,1,0.925
2,32,1,2,2,1,4,1,0,2,0.9769
2,33,1,2,1,2,1,2,0,1,1.1097
2,34,1,2,1,2,6,1,0,1,0.5893
2,35,1,2,2,1,3,2,0,2,1.6511
2,36,1,2,2,2,5,2,1,2,1.6135
2,37,1,2,1,1,4,1,1,1,0.727
2,38,1,2,1,2,3,2,0,1,0.5949
2,39,1,2,1,2,4,2,0,1,0.4642
2,40,1,2,2,2,5,1,1,2,0.7948
2,41,1,2,2,2,2,2,1,1,1.1799
2,42,1,2,1,1,3,2,1,1,0.7816
2,43,1,2,1,2,2,1,0,1,0.7305
2,44,1,2,1,1,1,1,1,1,0.5226
2,45,1,2,1,1,6,2,1,1,0.5266
2,46,1,2,1,1,5,1,1,1,0.5304
2,47,1,2,2,1,5,1,0,2,1.0464
2,48,1,2,1,2,5,1,0,1,0.7365
2,49,2,1,1,1,1,1,1,1,0.9366
2,50,2,1,1,1,5,2,1,1,0.4817
2,51,2,1,2,1,4,2,0,2,0.5849
2,52,2,1,1,2,6,1,0,1,0.658
2,53,2,1,1,1,2,1,1,1,0.5849
2,54,2,1,1,1,4,1,1,1,0.4658
2,55,2,1,2,2,1,2,1,2,0.4881
2,56,2,1,2,2,3,1,1,2,0.5156
2,57,2,1,1,2,1,2,0,1,1.0668
2,58,2,1,1,1,5,1,1,1,0.6053
2,59,2,1,2,2,2,1,1,2,0.5386
2,60,2,1,1,1,4,2,1,1,0.5425
2,61,2,1,2,1,4,1,0,2,0.5869
2,62,2,1,2,2,3,2,1,2,0.724
2,63,2,1,1,2,6,2,0,1,0.5279
2,64,2,1,1,2,3,2,0,1,0.6834
2,65,2,1,1,2,2,2,0,1,0.6102
2,66,2,1,1,1,1,2,1,1,0.4795
2,67,2,1,2,2,5,2,1,2,0.482
2,68,2,1,1,1,6,1,1,1,0.5213
2,69,2,1,2,1,2,1,0,2,0.5656
2,70,2,1,1,2,3,1,0,2,0.5395
2,71,2,1,1,2,1,1,0,1,0.6552
2,72,2,1,2,1,1,2,0,2,0.7974
2,73,2,1,1,1,2,2,1,1,0.5425
2,74,2,1,2,1,5,1,0,2,0.7149
2,75,2,1,1,2,2,1,0,1,0.6063
2,76,2,1,2,2,5,1,1,2,0.7199
2,77,2,1,2,2,4,1,1,2,0.5577
2,78,2,1,1,2,4,1,0,1,0.4741
2,79,2,1,2,1,3,1,0,2,0.5368
2,80,2,1,2,1,6,1,0,2,0.7968
2,81,2,1,1,2,4,2,0,1,0.4896
2,82,2,1,1,1,3,1,1,1,0.4008
2,83,2,1,2,1,3,2,0,2,0.5864
2,84,2,1,2,2,4,2,1,2,0.5315
2,85,2,1,2,1,1,1,0,2,0.5237
2,86,2,1,2,2,1,1,1,2,0.5276
2,87,2,1,2,1,6,2,0,1,0.4793
2,88,2,1,1,2,5,1,0,1,0.7061
2,89,2,1,2,1,2,2,0,2,0.6615
2,90,2,1,2,2,2,2,1,2,0.5243
2,91,2,1,1,1,6,2,1,1,0.5282
2,92,2,1,2,2,6,2,1,2,0.5843
2,93,2,1,2,2,6,1,1,2,0.5294
2,94,2,1,1,2,5,2,0,1,0.5974
2,95,2,1,1,1,3,2,1,1,0.5425
2,96,2,1,2,1,5,2,0,2,0.6627
2,97,3,1,1,1,1,2,1,1,0.735
2,98,3,1,2,2,2,1,1,2,0.6081
2,99,3,1,2,1,3,2,0,1,0.5297
2,100,3,1,2,2,3,2,1,2,0.6219
2,101,3,1,2,2,3,1,1,2,0.5552
2,102,3,1,1,1,5,1,1,1,0.5356
2,103,3,1,1,2,6,2,0,1,0.4755
2,104,3,1,1,1,6,2,1,1,0.422
2,105,3,1,2,1,5,2,0,2,0.4914
2,106,3,1,2,2,6,1,1,2,0.6704
2,107,3,1,1,1,4,1,1,1,0.5331
2,108,3,1,2,1,1,2,0,2,0.7931
2,109,3,1,1,1,1,1,1,1,0.5264
2,110,3,1,2,2,4,2,1,2,0.6583
2,111,3,1,1,2,5,2,0,1,0.4806
2,112,3,1,1,2,6,1,0,1,0.4272
2,113,3,1,2,2,2,2,1,2,0.473
2,114,3,1,1,2,4,2,0,1,0.5239
2,115,3,1,1,1,4,2,1,1,0.5852
2,116,3,1,2,1,4,1,0,2,0.5303
2,117,3,1,2,1,2,1,0,2,0.6505
2,118,3,1,2,1,2,2,0,2,0.6531
2,119,3,1,2,2,4,1,1,2,0.6791
2,120,3,1,2,1,4,2,0,2,0.6175
2,121,3,1,2,2,1,2,1,2,0.5391
2,122,3,1,2,1,1,1,0,2,0.4908
2,123,3,1,1,2,3,1,0,1,0.5941
2,124,3,1,2,2,6,2,1,2,0.5274
2,125,3,1,1,2,1,2,0,1,0.5836
2,126,3,1,1,1,2,2,1,1,0.4293
2,127,3,1,2,1,5,1,0,2,0.6149
2,128,3,1,1,1,6,1,1,1,0.5483
2,129,3,1,2,1,3,1,0,2,0.6802
2,130,3,1,1,2,2,2,0,1,0.6187
2,131,3,1,1,2,3,2,0,1,0.4764
2,132,3,1,1,1,2,1,1,1,0.4568
2,133,3,1,1,2,1,1,0,1,0.4555
2,134,3,1,2,2,5,2,1,2,0.4659
2,135,3,1,2,2,1,1,1,2,0.4243
2,136,3,1,2,1,6,1,0,2,0.4818
2,137,3,1,1,2,4,1,0,1,0.5329
2,138,3,1,1,2,5,1,0,1,0.397
2,139,3,1,1,2,2,1,0,1,0.4833
2,140,3,1,1,1,5,2,1,1,0.4467
2,141,3,1,1,1,3,2,1,1,0.6375
2,142,3,1,1,1,3,1,1,1,0.448
2,143,3,1,2,1,6,2,0,2,0.5343
2,144,3,1,2,2,5,1,1,2,0.422
2,145,4,2,1,1,3,1,1,1,0.68
2,146,4,2,2,2,3,1,1,2,0.6067
2,147,4,2,2,1,1,2,0,2,0.6967
2,148,4,2,2,2,6,2,1,2,0.7044
2,149,4,2,2,1,6,2,0,2,0.7121
2,150,4,2,1,1,2,1,1,1,0.8007
2,151,4,2,2,1,3,2,0,2,0.662
2,152,4,2,2,2,2,1,1,1,1.6246
2,153,4,2,1,1,4,2,1,1,0.6342
2,154,4,2,1,1,6,1,1,1,0.6485
2,155,4,2,2,2,3,2,1,2,0.668
2,156,4,2,1,2,3,2,0,1,0.5189
2,157,4,2,1,1,6,2,1,1,0.5228
2,158,4,2,2,1,2,1,0,2,0.9917
2,159,4,2,1,1,5,1,1,1,1.1128
2,160,4,2,2,1,4,2,0,2,0.5402
2,161,4,2,2,2,4,2,1,1,0.5963
2,162,4,2,1,2,3,1,0,1,0.5539
2,163,4,2,1,2,6,1,0,1,0.6505
2,164,4,2,2,2,6,1,1,2,0.525
2,165,4,2,1,2,4,2,0,1,0.657
2,166,4,2,1,1,3,2,1,1,0.5079
2,167,4,2,2,1,1,1,0,2,0.6112
2,168,4,2,1,1,5,2,1,1,0.5967
2,169,4,2,2,1,4,1,0,2,1.1178
2,170,4,2,2,2,1,1,1,2,0.7777
2,171,4,2,1,2,5,2,0,1,0.5868
2,172,4,2,2,2,4,1,1,1,0.9681
2,173,4,2,1,2,2,2,0,2,1.6418
2,174,4,2,1,1,4,1,1,1,0.5875
2,175,4,2,1,1,1,1,1,1,0.5444
2,176,4,2,2,2,1,2,1,2,0.7286
2,177,4,2,1,2,1,1,0,1,0.5965
2,178,4,2,2,1,3,1,0,2,1.03
2,179,4,2,1,1,2,2,1,1,1.424
2,180,4,2,1,2,2,1,0,1,0.586
2,181,4,2,1,2,4,1,0,1,0.612
2,182,4,2,1,1,1,2,1,1,0.5976
2,183,4,2,2,1,2,2,0,1,1.6307
2,184,4,2,1,2,6,2,0,1,0.8964
2,185,4,2,2,2,5,2,1,2,0.8556
2,186,4,2,2,1,5,1,0,2,0.6463
2,187,4,2,1,2,5,1,0,1,0.637
2,188,4,2,2,1,6,1,0,2,0.9713
2,189,4,2,1,2,1,2,0,1,0.5855
2,190,4,2,2,2,2,2,1,2,1.1184
2,191,4,2,2,2,5,1,1,2,0.598
2,192,4,2,2,1,5,2,0,2,0.5431
2,193,5,1,1,1,1,2,1,1,0.64
2,194,5,1,2,1,2,1,0,2,0.6764
2,195,5,1,2,1,6,2,0,2,0.8473
2,196,5,1,1,2,1,2,0,1,0.5741
2,197,5,1,2,1,2,2,0,2,0.5714
2,198,5,1,1,1,1,1,1,1,0.54
2,199,5,1,1,2,4,1,0,1,0.6602
2,200,5,1,2,2,5,2,1,2,0.5347
2,201,5,1,2,1,4,1,0,2,0.6431
2,202,5,1,2,2,6,2,1,2,0.6456
2,203,5,1,2,2,4,2,1,2,0.5319
2,204,5,1,2,2,4,1,1,2,0.5409
2,205,5,1,2,1,4,2,0,2,0.5971
2,206,5,1,2,2,2,2,1,2,0.4782
2,207,5,1,1,1,5,1,1,1,0.5292
2,208,5,1,1,1,2,2,1,1,0.4574
2,209,5,1,2,1,3,1,0,2,0.5841
2,210,5,1,1,2,5,1,0,1,0.5175
2,211,5,1,1,1,4,1,1,1,0.4574
2,212,5,1,1,2,5,2,0,1,0.4731
2,213,5,1,1,2,3,2,0,1,0.5359
2,214,5,1,1,1,5,2,1,1,0.5398
2,215,5,1,2,1,5,2,0,2,0.532
2,216,5,1,1,1,4,2,1,1,0.4719
2,217,5,1,2,1,5,1,0,2,0.4471
2,218,5,1,1,1,3,2,1,1,0.4458
2,219,5,1,2,2,2,1,1,2,0.5204
2,220,5,1,1,2,6,2,0,1,0.4655
2,221,5,1,2,2,3,1,1,2,0.54
2,222,5,1,1,2,4,2,0,1,0.5322
2,223,5,1,2,2,3,2,1,2,0.4721
2,224,5,1,1,2,6,1,0,1,0.5871
2,225,5,1,2,2,6,1,1,2,0.4564
2,226,5,1,2,1,1,2,0,1,0.4552
2,227,5,1,1,2,1,1,0,1,0.5657
2,228,5,1,1,1,6,1,1,1,0.5108
2,229,5,1,2,2,1,2,1,2,0.4861
2,230,5,1,1,2,2,1,0,1,0.5488
2,231,5,1,1,1,2,1,1,1,0.4248
2,232,5,1,1,2,2,2,0,1,0.5346
2,233,5,1,2,1,3,2,0,2,0.579
2,234,5,1,1,2,3,1,0,1,0.4483
2,235,5,1,2,2,5,1,1,2,0.639
2,236,5,1,2,1,6,1,0,2,0.6703
2,237,5,1,1,1,6,2,1,1,0.533
2,238,5,1,2,2,1,1,1,2,0.6127
2,239,5,1,2,1,1,1,0,2,0.6505
2,240,5,1,1,1,3,1,1,1,0.6648
2,241,6,2,2,1,5,2,0,2,1.2135
2,242,6,2,1,2,3,1,0,2,0.5756
2,243,6,2,2,1,1,2,0,1,0.8126
2,244,6,2,2,2,1,1,1,2,0.9071
2,245,6,2,2,2,3,2,1,2,0.9185
2,246,6,2,2,1,4,2,0,2,0.7262
2,247,6,2,2,2,6,1,1,2,0.6699
2,248,6,2,2,2,4,2,1,2,0.5849
2,249,6,2,1,2,3,2,0,1,0.6579
2,250,6,2,2,2,3,1,1,2,0.7009
2,251,6,2,1,2,6,2,0,1,0.5284
2,252,6,2,1,1,1,2,1,1,0.5897
2,253,6,2,2,2,1,2,1,2,0.8666
2,254,6,2,1,2,4,2,0,1,0.605
2,255,6,2,1,1,3,1,1,1,0.5384
2,256,6,2,1,2,1,2,0,1,0.507
2,257,6,2,2,1,3,2,0,2,0.8479
2,258,6,2,1,1,3,2,1,1,0.6386
2,259,6,2,2,1,6,1,0,2,0.7169
2,260,6,2,2,1,2,2,0,2,1.3579
2,261,6,2,2,1,5,1,0,2,1.1783
2,262,6,2,2,2,5,1,1,2,0.855
2,263,6,2,1,2,5,2,0,1,0.5935
2,264,6,2,2,2,2,1,1,2,0.9749
2,265,6,2,2,1,6,2,0,2,0.9797
2,266,6,2,1,2,6,1,0,1,0.577
2,267,6,2,1,2,2,2,0,2,1.4181
2,268,6,2,1,2,5,1,0,2,1.3774
2,269,6,2,1,1,2,1,1,1,1.9142
2,270,6,2,1,1,4,1,1,1,0.5415
2,271,6,2,1,1,2,2,1,1,0.9817
2,272,6,2,2,1,4,1,0,2,1.2948
2,273,6,2,2,1,3,1,0,2,1.7381
2,274,6,2,1,1,5,1,1,1,0.6582
2,275,6,2,1,1,5,2,1,1,0.5378
2,276,6,2,2,2,6,2,1,2,0.6345
2,277,6,2,1,1,4,2,1,1,0.5325
2,278,6,2,2,2,4,1,1,2,0.7285
2,279,6,2,2,2,5,2,1,2,0.7244
2,280,6,2,1,2,1,1,0,1,0.5165
2,281,6,2,1,2,2,1,0,1,1.2245
2,282,6,2,2,1,1,1,0,2,0.6269
2,283,6,2,1,1,6,1,1,2,1.2811
2,284,6,2,2,2,2,2,1,2,1.0683
2,285,6,2,1,1,6,2,1,1,0.6354
2,286,6,2,2,1,2,1,0,2,1.4935
2,287,6,2,1,2,4,1,0,1,0.5326
2,288,6,2,1,1,1,1,1,1,1.6768
2,289,7,2,1,2,3,2,0,1,0.6065
2,290,7,2,2,1,1,2,0,2,0.7135
2,291,7,2,2,1,2,1,0,2,0.8491
2,292,7,2,1,1,6,2,1,1,0.5759
2,293,7,2,1,2,1,2,0,1,0.5614
2,294,7,2,2,2,2,2,1,2,0.6698
2,295,7,2,2,2,1,1,1,2,0.5208
2,296,7,2,1,1,1,2,1,1,0.5012
2,297,7,2,2,1,6,2,0,2,0.5169
2,298,7,2,2,1,6,1,0,2,0.6422
2,299,7,2,2,2,6,2,1,2,0.5807
2,300,7,2,2,1,3,2,0,2,0.6708
2,301,7,2,1,1,6,1,1,1,0.5335
2,302,7,2,1,2,1,1,0,1,0.4734
2,303,7,2,2,2,3,2,1,2,0.6524
2,304,7,2,2,2,2,1,1,2,1.1029
2,305,7,2,1,2,2,1,0,1,1.0306
2,306,7,2,1,2,5,1,0,1,1.5408
2,307,7,2,1,1,2,2,1,1,0.6373
2,308,7,2,2,1,5,1,0,2,0.8723
2,309,7,2,1,2,3,1,0,1,0.855
2,310,7,2,2,2,4,1,1,2,0.8612
2,311,7,2,2,2,5,2,1,2,0.716
2,312,7,2,2,1,3,1,0,2,0.6229
2,313,7,2,1,1,2,1,1,1,0.6894
2,314,7,2,1,2,6,2,0,1,0.7206
2,315,7,2,1,1,5,2,1,1,0.565
2,316,7,2,1,2,5,2,0,1,0.4461
2,317,7,2,1,1,5,1,1,1,0.4684
2,318,7,2,2,1,4,2,0,2,0.6709
2,319,7,2,2,2,4,2,1,2,0.5035
2,320,7,2,1,2,2,2,0,1,0.6472
2,321,7,2,1,1,3,1,1,1,0.5099
2,322,7,2,1,1,4,2,1,1,0.4616
2,323,7,2,1,2,4,1,0,1,0.4251
2,324,7,2,1,1,4,1,1,1,0.4592
2,325,7,2,2,1,1,1,0,2,0.7257
2,326,7,2,2,2,3,1,1,2,0.6694
2,327,7,2,1,1,1,1,1,1,0.6483
2,328,7,2,2,2,1,2,1,2,0.5751
2,329,7,2,2,1,2,2,0,2,0.8166
2,330,7,2,2,1,5,2,0,1,1.2186
2,331,7,2,2,1,4,1,0,2,0.5931
2,332,7,2,2,2,6,1,1,2,0.5787
2,333,7,2,2,2,5,1,1,2,0.6113
2,334,7,2,1,2,4,2,0,1,0.6609
2,335,7,2,1,1,3,2,1,1,0.5354
2,336,7,2,1,2,6,1,0,1,0.5158
2,337,8,1,1,1,1,1,1,1,0.4733
2,338,8,1,1,1,6,1,1,1,0.4654
2,339,8,1,1,2,2,2,0,1,0.6731
2,340,8,1,1,2,5,2,0,1,0.5123
2,341,8,1,2,2,5,1,1,2,0.5397
2,342,8,1,2,1,2,2,0,2,0.9277
2,343,8,1,2,1,3,2,0,1,0.4793
2,344,8,1,2,2,2,2,1,2,0.4906
2,345,8,1,2,2,3,2,1,2,0.4305
2,346,8,1,1,2,4,1,0,1,0.5808
2,347,8,1,1,1,6,2,1,1,0.3979
2,348,8,1,2,1,2,1,0,2,0.5717
2,349,8,1,1,1,1,2,1,1,0.5403
2,350,8,1,1,1,2,2,1,1,0.4685
2,351,8,1,2,2,3,1,1,2,0.479
2,352,8,1,2,1,5,1,0,2,0.6618
2,353,8,1,2,2,4,2,1,2,0.5127
2,354,8,1,1,1,3,1,1,1,0.4813
2,355,8,1,2,1,1,1,0,2,0.497
2,356,8,1,2,2,2,1,1,2,0.5127
2,357,8,1,1,1,5,2,1,1,0.488
2,358,8,1,2,2,4,1,1,2,0.539
2,359,8,1,2,2,6,1,1,2,0.4789
2,360,8,1,2,1,6,1,0,2,0.4541
2,361,8,1,1,2,1,1,0,1,0.5338
2,362,8,1,1,2,6,2,0,1,0.4502
2,363,8,1,2,2,5,2,1,2,0.5182
2,364,8,1,1,1,4,1,1,1,0.5625
2,365,8,1,2,2,1,1,1,2,0.4907
2,366,8,1,2,1,4,2,0,2,0.6058
2,367,8,1,2,1,1,2,0,2,0.539
2,368,8,1,1,2,2,1,0,1,0.4554
2,369,8,1,1,1,3,2,1,1,0.4542
2,370,8,1,1,2,3,2,0,1,0.453
2,371,8,1,1,1,4,2,1,1,0.4282
2,372,8,1,1,2,1,2,0,1,0.474
2,373,8,1,2,2,6,2,1,2,0.5368
2,374,8,1,2,1,3,1,0,2,0.6687
2,375,8,1,1,2,6,1,0,1,0.5432
2,376,8,1,1,1,2,1,1,1,0.5759
2,377,8,1,1,2,5,1,0,1,0.5091
2,378,8,1,1,2,3,1,0,1,0.601
2,379,8,1,2,1,4,1,0,2,0.5866
2,380,8,1,2,1,6,2,0,2,0.7355
2,381,8,1,1,1,5,1,1,1,0.5393
2,382,8,1,2,1,5,2,0,2,0.6712
2,383,8,1,2,2,1,2,1,2,0.5862
2,384,8,1,1,2,4,2,0,1,0.5313
3,1,1,1,1,2,6,2,0,1,0.6916
3,2,1,1,2,2,1,1,1,2,0.5595
3,3,1,1,1,1,5,2,1,1,0.4759
3,4,1,1,2,1,6,1,0,2,0.5386
3,5,1,1,2,1,3,1,0,2,0.7868
3,6,1,1,1,1,2,1,1,1,0.5201
3,7,1,1,1,1,4,2,1,1,0.588
3,8,1,1,1,2,1,2,0,1,0.5854
3,9,1,1,1,2,3,2,0,1,0.5827
3,10,1,1,2,1,2,1,0,2,0.5278
3,11,1,1,2,2,5,2,1,2,0.4795
3,12,1,1,2,1,4,1,0,2,0.5945
3,13,1,1,2,2,4,2,1,2,0.5278
3,14,1,1,1,1,3,1,1,1,0.4795
3,15,1,1,1,1,6,1,1,1,0.5305
3,16,1,1,1,1,4,1,1,1,0.5345
3,17,1,1,2,1,2,2,0,2,0.7186
3,18,1,1,2,2,3,2,1,2,0.5343
3,19,1,1,2,2,2,1,1,2,0.6022
3,20,1,1,1,2,2,2,0,1,0.576
3,21,1,1,2,2,5,1,1,2,0.5735
3,22,1,1,2,2,3,1,1,2,0.5824
3,23,1,1,1,2,4,1,0,1,0.6033
3,24,1,1,1,2,2,1,0,1,0.6007
3,25,1,1,1,1,6,2,1,1,0.534
3,26,1,1,1,1,3,2,1,1,0.5313
3,27,1,1,1,2,5,2,0,1,0.5119
3,28,1,1,2,2,6,1,1,2,0.5392
3,29,1,1,2,1,5,2,0,2,0.6071
3,30,1,1,1,2,1,1,0,1,0.5287
3,31,1,1,2,1,1,2,0,2,0.5848
3,32,1,1,1,1,2,2,1,1,0.5299
3,33,1,1,2,1,3,2,0,2,0.4699
3,34,1,1,1,2,3,1,0,1,0.4686
3,35,1,1,2,1,6,2,0,2,0.5432
3,36,1,1,1,2,5,1,0,1,0.4765
3,37,1,1,2,2,1,2,1,2,0.5275
3,38,1,1,2,2,2,2,1,2,0.4557
3,39,1,1,1,1,5,1,1,1,0.4662
3,40,1,1,1,2,4,2,0,1,0.5407
3,41,1,1,2,1,1,1,0,2,0.5211
3,42,1,1,1,1,1,2,1,1,0.525
3,43,1,1,1,1,1,1,1,1,0.5289
3,44,1,1,2,1,4,2,0,2,0.5969
3,45,1,1,2,2,6,2,1,2,0.478
3,46,1,1,2,1,5,1,0,2,0.5407
3,47,1,1,1,2,6,1,0,1,0.5094
3,48,1,1,2,2,4,1,1,2,0.5774
3,49,2,2,2,2,4,2,1,2,1.1555
3,50,2,2,1,2,3,1,0,2,1.2568
3,51,2,2,2,1,1,1,0,2,0.6952
3,52,2,2,2,1,1,2,0,2,0.6883
3,53,2,2,2,2,5,1,1,2,0.5797
3,54,2,2,1,2,4,1,0,1,0.7168
3,55,2,2,1,2,5,1,0,1,0.5965
3,56,2,2,2,1,3,1,0,2,0.8903
3,57,2,2,2,1,2,2,0,2,0.6575
3,58,2,2,2,2,3,2,1,2,0.7122
3,59,2,2,2,2,1,2,1,2,0.6036
3,60,2,2,1,2,1,2,0,1,0.473
3,61,2,2,2,1,4,2,0,2,0.908
3,62,2,2,2,1,2,1,0,2,0.6045
3,63,2,2,1,1,5,1,1,1,0.5261
3,64,2,2,1,2,1,1,0,1,0.5418
3,65,2,2,2,1,3,2,0,2,0.79
3,66,2,2,1,2,6,1,0,1,0.9713
3,67,2,2,1,1,1,1,1,1,0.9643
3,68,2,2,1,1,4,1,1,1,0.8294
3,69,2,2,1,1,6,2,1,1,0.4752
3,70,2,2,1,1,3,2,1,1,1.2302
3,71,2,2,2,1,6,2,0,2,0.9121
3,72,2,2,2,1,4,1,0,2,0.836
3,73,2,2,1,1,6,1,1,1,0.5863
3,74,2,2,2,1,5,1,0,2,0.6594
3,75,2,2,1,2,2,1,0,1,0.8591
3,76,2,2,1,2,6,2,0,1,0.4695
3,77,2,2,1,1,2,1,1,1,0.6603
3,78,2,2,1,1,3,1,1,1,0.5348
3,79,2,2,1,2,2,2,0,1,0.5387
3,80,2,2,2,2,3,1,1,2,0.5949
3,81,2,2,1,2,3,2,0,1,0.5922
3,82,2,2,2,1,5,2,0,2,0.6535
3,83,2,2,2,2,5,2,1,2,0.5163
3,84,2,2,1,2,4,2,0,1,0.6718
3,85,2,2,1,1,4,2,1,1,0.5228
3,86,2,2,1,1,5,2,1,1,0.5384
3,87,2,2,2,2,6,1,1,2,0.6586
3,88,2,2,1,2,5,2,0,1,0.5735
3,89,2,2,2,2,1,1,1,2,0.5187
3,90,2,2,2,2,2,1,1,2,1.0986
3,91,2,2,1,1,2,2,1,1,1.0377
3,92,2,2,2,2,4,1,1,2,0.728
3,93,2,2,1,1,1,2,1,1,1.1719
3,94,2,2,2,2,2,2,1,2,0.7324
3,95,2,2,2,2,6,2,1,2,0.5768
3,96,2,2,2,1,6,1,0,2,0.5036
3,97,3,2,1,2,1,2,0,1,0.9967
3,98,3,2,2,1,5,1,0,2,0.5469
3,99,3,2,1,1,6,1,1,1,1.1792
3,100,3,2,2,1,2,2,0,2,0.9082
3,101,3,2,2,2,4,1,1,2,1.1115
3,102,3,2,2,1,4,2,0,2,0.7192
3,103,3,2,1,1,5,1,1,1,0.5518
3,104,3,2,2,2,5,2,1,2,0.5086
3,105,3,2,2,1,1,2,0,2,0.5126
3,106,3,2,1,1,1,1,1,1,0.4643
3,107,3,2,1,2,5,1,0,1,1.3708
3,108,3,2,2,1,1,1,0,2,0.5916
3,109,3,2,1,1,4,2,1,1,0.7927
3,110,3,2,1,1,3,2,1,1,1.0262
3,111,3,2,2,2,3,1,1,2,0.6522
3,112,3,2,1,1,2,1,1,1,1.5507
3,113,3,2,1,2,1,1,0,1,0.851
3,114,3,2,1,2,4,1,0,1,0.5373
3,115,3,2,2,2,1,2,1,2,0.5465
3,116,3,2,2,2,5,1,1,2,0.5909
3,117,3,2,2,2,3,2,1,2,0.5998
3,118,3,2,2,1,3,2,0,2,0.5973
3,119,3,2,1,1,4,1,1,1,0.6063
3,120,3,2,2,1,3,1,0,2,0.661
3,121,3,2,1,2,3,2,0,1,0.5407
3,122,3,2,1,2,4,2,0,1,0.4505
3,123,3,2,1,1,3,1,1,1,0.5368
3,124,3,2,2,2,6,2,1,2,0.6047
3,125,3,2,1,2,5,2,0,1,0.7418
3,126,3,2,2,2,1,1,1,2,0.534
3,127,3,2,1,1,1,2,1,1,0.5835
3,128,3,2,2,1,6,1,0,2,0.709
3,129,3,2,2,1,6,2,0,2,0.6055
3,130,3,2,2,1,4,1,0,2,0.5911
3,131,3,2,2,2,2,2,1,1,1.3042
3,132,3,2,2,1,2,1,0,2,0.9633
3,133,3,2,2,1,5,2,0,2,0.5554
3,134,3,2,2,2,2,1,1,2,0.5241
3,135,3,2,1,1,5,2,1,1,0.656
3,136,3,2,1,2,3,1,0,1,0.7107
3,137,3,2,2,2,6,1,1,2,0.6426
3,138,3,2,1,2,2,1,0,1,0.5171
3,139,3,2,2,2,4,2,1,2,1.1611
3,140,3,2,1,2,2,2,0,1,0.6694
3,141,3,2,1,2,6,1,0,1,0.6079
3,142,3,2,1,1,2,2,1,1,0.5412
3,143,3,2,1,2,6,2,0,1,0.4576
3,144,3,2,1,1,6,2,1,1,0.4446
3,145,4,1,2,1,4,1,0,2,0.732
3,146,4,1,2,1,1,1,0,2,0.5293
3,147,4,1,1,2,5,2,0,1,0.5855
3,148,4,1,1,1,1,1,1,1,0.4262
3,149,4,1,2,2,5,1,1,2,0.4719
3,150,4,1,2,1,3,2,0,2,0.6745
3,151,4,1,2,1,5,2,0,2,0.5255
3,152,4,1,1,2,5,1,0,1,0.4301
3,153,4,1,1,2,3,1,0,1,0.7084
3,154,4,1,2,2,1,1,1,2,0.5241
3,155,4,1,1,2,4,2,0,1,0.4287
3,156,4,1,1,1,2,2,1,1,0.4223
3,157,4,1,2,1,6,2,0,2,0.5321
3,158,4,1,1,1,6,1,1,1,0.92
3,159,4,1,1,1,3,1,1,1,0.4717
3,160,4,1,1,1,6,2,1,1,0.4469
3,161,4,1,1,1,3,2,1,1,0.5096
3,162,4,1,2,2,1,2,1,2,0.4614
3,163,4,1,2,2,5,2,1,2,0.5006
3,164,4,1,2,1,2,2,0,2,0.6678
3,165,4,1,2,1,3,1,0,2,0.6063
3,166,4,1,2,2,4,2,1,2,0.4756
3,167,4,1,2,1,5,1,0,2,0.5906
3,168,4,1,2,2,2,1,1,2,0.4482
3,169,4,1,2,2,6,1,1,2,0.5227
3,170,4,1,2,2,6,2,1,2,0.4509
3,171,4,1,1,1,5,1,1,1,0.4261
3,172,4,1,1,2,1,2,0,1,0.4719
3,173,4,1,1,2,1,1,0,1,0.4707
3,174,4,1,1,1,1,2,1,1,0.4055
3,175,4,1,2,2,3,1,1,2,0.5153
3,176,4,1,1,1,4,2,1,1,0.3912
3,177,4,1,1,1,5,2,1,1,0.5128
3,178,4,1,1,2,6,1,0,1,0.7845
3,179,4,1,1,1,4,1,1,1,0.4943
3,180,4,1,1,2,6,2,0,1,0.5335
3,181,4,1,2,1,1,2,0,1,0.5375
3,182,4,1,2,1,2,1,0,2,0.5134
3,183,4,1,1,1,2,1,1,1,0.4533
3,184,4,1,1,2,3,2,0,1,0.6441
3,185,4,1,2,1,4,2,0,2,0.6583
3,186,4,1,2,2,4,1,1,2,0.4571
3,187,4,1,2,2,3,2,1,2,0.4963
3,188,4,1,1,2,4,1,0,1,0.4715
3,189,4,1,1,2,2,1,0,1,1.0581
3,190,4,1,2,2,2,2,1,2,0.5325
3,191,4,1,1,2,2,2,0,1,0.5247
3,192,4,1,2,1,6,1,0,2,0.5456
3,193,5,2,1,2,2,2,0,1,0.7414
3,194,5,2,2,1,2,2,0,2,0.5387
3,195,5,2,1,1,3,2,1,1,0.7111
3,196,5,2,2,1,5,2,0,2,0.6025
3,197,5,2,1,1,5,2,1,1,0.6757
3,198,5,2,1,2,3,1,0,1,1.4344
3,199,5,2,1,1,2,1,1,1,0.8928
3,200,5,2,2,1,4,2,0,2,0.5202
3,201,5,2,2,1,3,1,0,2,0.5241
3,202,5,2,2,2,6,1,1,2,0.9121
3,203,5,2,1,2,1,2,0,1,0.9927
3,204,5,2,1,1,6,1,1,1,0.5377
3,205,5,2,2,2,3,1,1,2,0.4777
3,206,5,2,2,1,2,1,0,2,0.7206
3,207,5,2,1,1,6,2,1,1,0.5246
3,208,5,2,1,1,1,2,1,1,0.4174
3,209,5,2,1,2,5,2,0,1,0.5795
3,210,5,2,2,2,4,2,1,2,0.5128
3,211,5,2,1,1,2,2,1,1,0.7493
3,212,5,2,2,1,4,1,0,2,1.082
3,213,5,2,2,2,2,2,1,2,0.789
3,214,5,2,1,2,4,1,0,1,0.47
3,215,5,2,2,1,6,2,0,2,0.5733
3,216,5,2,2,2,1,2,1,2,0.5301
3,217,5,2,2,2,1,1,1,2,0.7783
3,218,5,2,1,1,5,1,1,1,0.4594
3,219,5,2,1,1,4,1,1,1,0.5391
3,220,5,2,2,2,6,2,1,2,0.479
3,221,5,2,2,1,1,2,0,2,0.6698
3,222,5,2,1,1,3,1,1,1,0.7885
3,223,5,2,2,2,5,2,1,2,0.5218
3,224,5,2,1,2,6,2,0,1,0.578
3,225,5,2,2,2,4,1,1,2,0.5871
3,226,5,2,1,1,4,2,1,1,0.9044
3,227,5,2,2,1,5,1,0,2,1.0608
3,228,5,2,1,2,2,1,0,2,1.4312
3,229,5,2,2,2,5,1,1,2,0.7807
3,230,5,2,1,2,3,2,0,1,0.5898
3,231,5,2,1,2,1,1,0,1,0.7909
3,232,5,2,1,1,1,1,1,1,0.6522
3,233,5,2,2,2,3,2,1,2,0.7827
3,234,5,2,2,1,1,1,0,2,0.5801
3,235,5,2,2,1,6,1,0,2,0.4781
3,236,5,2,1,2,6,1,0,1,0.4128
3,237,5,2,1,2,5,1,0,1,0.5344
3,238,5,2,2,1,3,2,0,2,0.9224
3,239,5,2,2,2,2,1,1,2,1.0265
3,240,5,2,1,2,4,2,0,1,0.5885
3,241,6,1,2,2,5,1,1,2,0.791
3,242,6,1,1,1,3,2,1,1,0.553
3,243,6,1,2,2,3,2,1,2,0.4577
3,244,6,1,1,1,1,2,1,1,0.4682
3,245,6,1,1,2,6,1,0,1,0.5074
3,246,6,1,2,1,4,1,0,1,0.471
3,247,6,1,1,2,6,2,0,1,0.6101
3,248,6,1,1,2,4,1,0,1,0.5317
3,249,6,1,2,1,2,2,0,2,0.5643
3,250,6,1,2,2,1,1,1,2,0.4369
3,251,6,1,1,2,4,2,0,1,0.5349
3,252,6,1,2,1,3,2,0,2,0.6028
3,253,6,1,1,2,5,1,0,1,0.6002
3,254,6,1,1,1,4,2,1,1,0.446
3,255,6,1,2,2,6,2,1,2,0.8405
3,256,6,1,1,1,5,1,1,1,0.451
3,257,6,1,1,2,5,2,0,1,0.5138
3,258,6,1,2,2,4,2,1,2,0.4655
3,259,6,1,2,1,4,2,0,2,0.4929
3,260,6,1,1,2,3,1,0,1,0.5961
3,261,6,1,2,2,5,2,1,2,0.5817
3,262,6,1,1,1,3,1,1,1,0.4628
3,263,6,1,2,2,1,2,1,2,0.4498
3,264,6,1,1,2,3,2,0,1,0.5765
3,265,6,1,2,2,3,1,1,2,0.4576
3,266,6,1,2,1,2,1,0,2,0.8691
3,267,6,1,1,1,2,2,1,1,0.4796
3,268,6,1,2,2,4,1,1,2,0.5423
3,269,6,1,1,1,6,1,1,1,0.4705
3,270,6,1,1,1,4,1,1,1,0.4575
3,271,6,1,2,1,1,2,0,2,0.7005
3,272,6,1,2,2,6,1,1,2,0.3882
3,273,6,1,1,2,1,2,0,1,0.5855
3,274,6,1,1,2,1,1,0,1,0.4953
3,275,6,1,2,1,6,2,0,1,0.4706
3,276,6,1,1,1,6,2,1,1,0.5054
3,277,6,1,2,1,1,1,0,2,0.4688
3,278,6,1,2,2,2,1,1,2,0.5198
3,279,6,1,2,1,3,1,0,1,0.4479
3,280,6,1,1,1,5,2,1,1,0.5467
3,281,6,1,2,1,5,2,0,2,0.4918
3,282,6,1,1,1,2,1,1,1,0.5311
3,283,6,1,2,1,6,1,0,2,0.535
3,284,6,1,2,1,5,1,0,2,0.6029
3,285,6,1,1,2,2,1,0,1,0.4605
3,286,6,1,1,1,1,1,1,1,0.5232
3,287,6,1,2,2,2,2,1,2,0.4514
3,288,6,1,1,2,2,2,0,1,0.5782
3,289,7,1,2,2,3,2,1,2,0.4731
3,290,7,1,2,1,2,2,0,2,0.4248
3,291,7,1,2,1,4,2,0,2,0.4067
3,292,7,1,1,2,3,2,0,1,0.348
3,293,7,1,1,1,3,1,1,1,0.4122
3,294,7,1,2,2,2,1,1,2,0.3705
3,295,7,1,2,1,1,2,0,2,0.4921
3,296,7,1,2,1,6,2,0,2,0.4673
3,297,7,1,1,1,5,2,1,1,0.4021
3,298,7,1,1,2,2,1,0,1,0.5406
3,299,7,1,2,2,3,1,1,2,0.4047
3,300,7,1,1,2,4,2,0,1,0.5381
3,301,7,1,1,1,1,1,1,1,0.4781
3,302,7,1,2,2,1,2,1,2,0.4702
3,303,7,1,1,2,6,2,0,1,0.4859
3,304,7,1,2,2,5,1,1,2,0.5251
3,305,7,1,2,2,4,1,1,2,0.4533
3,306,7,1,1,1,4,1,1,1,0.4285
3,307,7,1,1,1,3,2,1,1,0.4103
3,308,7,1,1,2,3,1,0,1,0.4797
3,309,7,1,2,2,4,2,1,2,0.4027
3,310,7,1,1,2,5,1,0,1,0.5243
3,311,7,1,1,2,4,1,0,1,0.4642
3,312,7,1,1,2,5,2,0,1,0.4512
3,313,7,1,2,2,1,1,1,2,0.578
3,314,7,1,1,1,6,1,1,1,0.604
3,315,7,1,2,1,2,1,0,2,0.647
3,316,7,1,2,1,1,1,0,2,0.5333
3,317,7,1,2,1,3,2,0,2,0.5372
3,318,7,1,1,1,5,1,1,1,0.4013
3,319,7,1,1,2,1,1,0,1,0.5112
3,320,7,1,2,2,5,2,1,2,0.5151
3,321,7,1,1,2,6,1,0,1,0.455
3,322,7,1,2,2,2,2,1,2,0.4825
3,323,7,1,2,1,5,2,0,2,0.5975
3,324,7,1,2,2,6,1,1,2,0.5426
3,325,7,1,1,1,4,2,1,1,0.4068
3,326,7,1,1,1,2,1,1,1,0.4526
3,327,7,1,2,1,6,1,0,2,0.48
3,328,7,1,2,2,6,2,1,2,0.4552
3,329,7,1,1,1,6,2,1,1,0.454
3,330,7,1,1,1,1,2,1,1,0.4815
3,331,7,1,1,1,2,2,1,1,0.4685
3,332,7,1,2,1,5,1,0,2,0.479
3,333,7,1,2,1,3,1,0,2,0.8029
3,334,7,1,1,2,1,2,0,1,0.3965
3,335,7,1,1,2,2,2,0,1,0.5181
3,336,7,1,2,1,4,1,0,1,0.4985
3,337,8,2,2,2,1,1,1,2,0.7808
3,338,8,2,2,2,6,2,1,2,0.9269
3,339,8,2,1,2,6,2,0,1,0.4145
3,340,8,2,2,1,1,2,0,2,0.9201
3,341,8,2,1,1,3,2,1,1,0.8557
3,342,8,2,1,1,1,2,1,1,0.4662
3,343,8,2,1,2,6,1,0,1,0.4532
3,344,8,2,2,2,2,2,1,2,0.6558
3,345,8,2,2,2,4,1,1,2,0.6869
3,346,8,2,2,1,3,2,0,2,0.6711
3,347,8,2,1,2,3,1,0,1,0.5338
3,348,8,2,2,2,5,1,1,2,0.6657
3,349,8,2,1,1,2,2,1,1,0.9882
3,350,8,2,1,1,3,1,1,1,0.5097
3,351,8,2,2,2,3,1,1,2,0.6417
3,352,8,2,2,1,5,2,0,2,0.4641
3,353,8,2,2,2,3,2,1,2,0.7188
3,354,8,2,1,2,5,2,0,1,0.3998
3,355,8,2,2,2,5,2,1,2,0.7252
3,356,8,2,1,1,5,1,1,1,0.4128
3,357,8,2,1,1,1,1,1,1,0.8427
3,358,8,2,2,1,1,1,0,2,0.9011
3,359,8,2,1,2,1,1,0,1,0.7088
3,360,8,2,2,2,2,1,1,2,0.8327
3,361,8,2,1,1,4,1,1,1,0.4719
3,362,8,2,1,1,6,2,1,1,0.4588
3,363,8,2,2,1,6,2,0,2,0.6614
3,364,8,2,2,1,2,1,0,2,0.7919
3,365,8,2,1,2,2,1,0,1,0.7342
3,366,8,2,1,2,4,2,0,1,0.4388
3,367,8,2,1,2,3,2,0,1,0.4493
3,368,8,2,1,2,2,2,0,1,0.4415
3,369,8,2,1,1,4,2,1,1,0.5329
3,370,8,2,1,1,5,2,1,1,0.6648
3,371,8,2,2,1,2,2,0,2,0.8594
3,372,8,2,2,2,6,1,1,2,0.5339
3,373,8,2,1,2,4,1,0,1,0.4098
3,374,8,2,2,1,6,1,0,2,0.5248
3,375,8,2,2,1,3,1,0,2,0.7089
3,376,8,2,1,1,6,1,1,1,0.5246
3,377,8,2,1,2,5,1,0,1,0.4292
3,378,8,2,2,1,4,1,0,2,0.6171
3,379,8,2,1,1,2,1,1,1,0.9227
3,380,8,2,2,1,4,2,0,2,0.7943
3,381,8,2,1,2,1,2,0,1,1.0919
3,382,8,2,2,1,5,1,0,2,0.5833
3,383,8,2,2,2,4,2,1,2,0.9006
3,384,8,2,2,2,1,2,1,2,0.6443
4,1,1,2,2,2,6,2,1,2,1.4734
4,2,1,2,1,1,1,2,1,1,1.2136
4,3,1,2,2,2,1,1,1,2,1.0471
4,4,1,2,1,1,6,2,1,2,0.9173
4,5,1,2,2,1,4,2,0,1,1.145
4,6,1,2,2,2,3,2,1,2,1.3463
4,7,1,2,2,2,2,1,1,2,0.9746
4,8,1,2,1,1,5,2,1,2,0.9794
4,9,1,2,2,1,2,2,0,1,0.8922
4,10,1,2,1,1,3,2,1,1,1.0441
4,11,1,2,2,2,6,1,1,2,0.9666
4,12,1,2,2,2,2,2,1,2,0.7154
4,13,1,2,1,2,5,1,0,2,0.6878
4,14,1,2,1,1,1,1,1,1,0.7668
4,15,1,2,1,2,3,1,0,2,0.7797
4,16,1,2,1,1,4,2,1,2,1.1367
4,17,1,2,2,1,3,2,0,2,0.8848
4,18,1,2,1,1,2,1,1,1,0.844
4,19,1,2,2,1,5,2,0,1,1.5661
4,20,1,2,1,2,2,1,0,1,0.8148
4,21,1,2,1,2,4,2,0,2,1.4846
4,22,1,2,1,1,5,1,1,2,1.2637
4,23,1,2,1,2,5,2,0,2,0.8824
4,24,1,2,1,2,1,2,0,1,0.9939
4,25,1,2,1,2,4,1,0,1,0.667
4,26,1,2,1,2,3,2,0,1,0.5414
4,27,1,2,2,2,4,2,1,2,0.7778
4,28,1,2,2,1,3,1,0,2,1.291
4,29,1,2,1,1,2,2,1,2,0.7978
4,30,1,2,1,1,3,1,1,1,0.6952
4,31,1,2,2,1,1,2,0,2,1.0986
4,32,1,2,2,1,1,1,0,2,1.55
4,33,1,2,1,1,6,1,1,1,1.054
4,34,1,2,2,2,4,1,1,2,1.0287
4,35,1,2,2,1,6,2,0,1,0.9629
4,36,1,2,2,2,1,2,1,2,0.9633
4,37,1,2,2,2,3,1,1,2,0.8284
4,38,1,2,2,1,5,1,0,1,1.1546
4,39,1,2,2,1,6,1,0,2,1.0713
4,40,1,2,1,2,2,2,0,1,1.4182
4,41,1,2,2,1,2,1,0,2,0.6794
4,42,1,2,1,2,1,1,0,1,0.8503
4,43,1,2,1,2,6,2,0,2,0.8449
4,44,1,2,2,1,4,1,0,2,1.5794
4,45,1,2,2,2,5,2,1,1,1.1643
4,46,1,2,2,2,5,1,1,2,0.8654
4,47,1,2,1,1,4,1,1,2,1.0401
4,48,1,2,1,2,6,1,0,2,1.2781
4,49,2,1,1,1,4,1,1,1,1.3774
4,50,2,1,2,2,2,2,1,2,0.7902
4,51,2,1,2,2,5,2,1,2,0.6398
4,52,2,1,1,1,3,1,1,1,0.59
4,53,2,1,1,1,5,2,1,1,0.5117
4,54,2,1,2,1,2,2,0,2,0.5155
4,55,2,1,1,2,4,2,0,1,0.543
4,56,2,1,2,1,6,2,0,2,0.6514
4,57,2,1,1,2,2,1,0,1,0.6657
4,58,2,1,1,1,5,1,1,1,0.6041
4,59,2,1,2,2,3,2,1,2,0.5191
4,60,2,1,2,2,3,1,1,2,0.587
4,61,2,1,1,1,4,2,1,1,0.4446
4,62,2,1,2,2,1,2,1,2,0.5191
4,63,2,1,1,1,6,2,1,1,0.4068
4,64,2,1,2,1,4,1,0,1,0.5284
4,65,2,1,1,2,1,1,0,1,1.9764
4,66,2,1,1,2,2,2,0,1,0.6375
4,67,2,1,2,2,2,1,1,2,0.5238
4,68,2,1,2,1,2,1,0,2,0.964
4,69,2,1,2,1,5,2,0,2,0.6488
4,70,2,1,1,1,6,1,1,1,0.5351
4,71,2,1,1,1,3,2,1,2,0.4919
4,72,2,1,2,2,4,1,1,2,0.707
4,73,2,1,2,2,4,2,1,2,0.5867
4,74,2,1,1,1,1,2,1,1,0.4677
4,75,2,1,1,2,6,1,0,1,0.6467
4,76,2,1,2,1,1,1,0,2,0.7014
4,77,2,1,1,1,2,1,1,1,0.7849
4,78,2,1,1,1,2,2,1,1,0.466
4,79,2,1,2,1,5,1,0,2,0.5405
4,80,2,1,2,1,1,2,0,1,0.5967
4,81,2,1,2,2,6,2,1,2,0.758
4,82,2,1,2,2,5,1,1,2,0.4626
4,83,2,1,1,2,1,2,0,1,0.5776
4,84,2,1,2,1,3,2,0,2,0.8427
4,85,2,1,1,2,4,1,0,1,0.5407
4,86,2,1,1,1,1,1,1,1,0.8411
4,87,2,1,1,2,5,2,0,1,0.6031
4,88,2,1,2,1,3,1,0,2,0.5887
4,89,2,1,1,2,3,1,0,1,0.65
4,90,2,1,1,2,3,2,0,1,0.5128
4,91,2,1,2,1,6,1,0,2,0.6329
4,92,2,1,2,1,4,2,0,2,0.6473
4,93,2,1,1,2,5,1,0,1,0.5975
4,94,2,1,1,2,6,2,0,1,0.5478
4,95,2,1,2,2,6,1,1,2,0.5399
4,96,2,1,2,2,1,1,1,2,0.5725
4,97,3,1,1,1,6,2,1,1,0.7199
4,98,3,1,2,2,2,1,1,2,0.5877
4,99,3,1,1,2,3,2,0,2,0.4571
4,100,3,1,1,2,4,2,0,1,0.6316
4,101,3,1,1,1,4,2,1,1,0.4134
4,102,3,1,1,1,1,1,1,1,0.471
4,103,3,1,2,2,1,1,1,2,0.586
4,104,3,1,1,2,3,1,0,1,0.5311
4,105,3,1,2,1,3,1,0,1,0.4476
4,106,3,1,2,1,1,1,0,2,0.8663
4,107,3,1,1,1,5,2,1,1,0.593
4,108,3,1,2,2,2,2,1,2,0.5381
4,109,3,1,1,2,1,2,0,1,0.67
4,110,3,1,2,1,6,1,0,2,0.5967
4,111,3,1,1,1,6,1,1,1,0.5301
4,112,3,1,1,1,2,2,1,1,0.5222
4,113,3,1,2,1,6,2,0,1,0.4623
4,114,3,1,1,2,4,1,0,1,0.5609
4,115,3,1,2,2,4,2,1,2,0.506
4,116,3,1,1,2,1,1,0,1,0.7895
4,117,3,1,2,1,3,2,0,2,0.7148
4,118,3,1,1,2,6,1,0,1,0.5423
4,119,3,1,1,1,3,2,1,1,0.6624
4,120,3,1,2,1,2,1,0,2,0.4729
4,121,3,1,2,2,5,2,1,1,0.4717
4,122,3,1,1,1,1,2,1,1,0.6227
4,123,3,1,1,2,6,2,0,1,0.5494
4,124,3,1,2,1,4,1,0,2,0.7102
4,125,3,1,1,2,2,2,0,2,0.642
4,126,3,1,2,2,4,1,1,2,0.7562
4,127,3,1,2,1,5,2,0,2,0.5366
4,128,3,1,2,1,2,2,0,2,0.4766
4,129,3,1,2,2,5,1,1,2,0.5798
4,130,3,1,1,2,5,1,0,1,0.4778
4,131,3,1,2,2,6,2,1,2,0.5928
4,132,3,1,1,1,2,1,1,2,0.5902
4,133,3,1,2,2,1,2,1,2,0.9722
4,134,3,1,2,2,3,1,1,2,0.5408
4,135,3,1,1,2,2,1,0,1,0.5212
4,136,3,1,1,2,5,2,0,1,0.4729
4,137,3,1,1,1,4,1,1,1,0.5879
4,138,3,1,2,1,4,2,0,2,0.4859
4,139,3,1,2,2,3,2,1,2,0.5774
4,140,3,1,2,2,6,1,1,2,0.435
4,141,3,1,2,1,5,1,0,2,0.5499
4,142,3,1,1,1,5,1,1,1,0.4663
4,143,3,1,1,1,3,1,1,1,0.5409
4,144,3,1,2,1,1,2,0,2,0.5971
4,145,4,2,1,2,1,1,0,1,1.2914
4,146,4,2,2,2,1,1,1,2,0.5998
4,147,4,2,2,1,3,1,0,2,0.5735
4,148,4,2,1,2,4,2,0,1,0.5187
4,149,4,2,2,1,1,2,0,2,1.0228
4,150,4,2,2,1,4,2,0,2,0.8526
4,151,4,2,2,1,2,1,0,1,0.6146
4,152,4,2,1,1,6,2,1,1,0.7524
4,153,4,2,1,2,1,2,0,1,0.5732
4,154,4,2,2,2,6,1,1,2,0.7104
4,155,4,2,1,1,4,2,1,1,0.5783
4,156,4,2,2,2,1,2,1,2,0.4763
4,157,4,2,2,1,1,1,0,1,0.4515
4,158,4,2,1,2,6,2,0,1,0.7018
4,159,4,2,2,1,4,1,0,2,0.8611
4,160,4,2,2,1,5,1,0,2,0.7915
4,161,4,2,1,1,5,2,1,1,1.1008
4,162,4,2,2,2,2,2,1,2,0.7725
4,163,4,2,2,1,3,2,0,2,0.7096
4,164,4,2,1,2,4,1,0,1,0.7812
4,165,4,2,2,2,2,1,1,2,0.555
4,166,4,2,1,1,2,1,1,1,0.9702
4,167,4,2,1,2,3,2,0,2,0.6315
4,168,4,2,1,1,3,1,1,2,0.7458
4,169,4,2,2,2,5,2,1,1,1.5039
4,170,4,2,2,2,4,1,1,2,0.9394
4,171,4,2,1,1,2,2,1,1,0.5654
4,172,4,2,2,2,3,1,1,2,1.0983
4,173,4,2,1,1,1,1,1,1,0.7934
4,174,4,2,1,1,5,1,1,1,0.6952
4,175,4,2,1,1,6,1,1,2,0.6624
4,176,4,2,2,1,5,2,0,2,0.7651
4,177,4,2,1,1,4,1,1,1,0.958
4,178,4,2,2,1,6,2,0,1,1.8589
4,179,4,2,1,2,3,1,0,1,0.7495
4,180,4,2,2,2,4,2,1,2,0.8668
4,181,4,2,1,2,2,2,0,1,0.698
4,182,4,2,2,2,6,2,1,2,0.9212
4,183,4,2,2,2,5,1,1,2,0.7171
4,184,4,2,1,1,1,2,1,1,0.5732
4,185,4,2,1,2,5,2,0,1,0.4543
4,186,4,2,1,2,5,1,0,1,0.4648
4,187,4,2,2,2,3,2,1,2,0.4452
4,188,4,2,1,1,3,2,1,1,0.5837
4,189,4,2,2,1,6,1,0,2,0.7613
4,190,4,2,1,2,6,1,0,1,0.5417
4,191,4,2,1,2,2,1,0,1,1.5108
4,192,4,2,2,1,2,2,0,2,0.4793
4,193,5,1,1,1,4,1,1,1,0.6685
4,194,5,1,2,1,6,1,0,1,0.4959
4,195,5,1,2,2,6,1,1,2,0.6234
4,196,5,1,1,1,3,1,1,1,0.5671
4,197,5,1,2,1,1,2,0,2,0.5997
4,198,5,1,2,2,4,1,1,1,0.661
4,199,5,1,2,1,4,2,0,2,0.8915
4,200,5,1,1,2,3,2,0,1,0.5425
4,201,5,1,1,1,4,2,1,1,0.5751
4,202,5,1,1,2,2,1,0,1,0.8402
4,203,5,1,2,2,1,1,1,2,0.5265
4,204,5,1,2,2,4,2,1,2,0.6231
4,205,5,1,2,2,2,1,1,2,0.5969
4,206,5,1,2,1,2,1,0,1,0.478
4,207,5,1,2,1,2,2,0,2,0.7048
4,208,5,1,1,2,4,1,0,1,0.6485
4,209,5,1,1,2,5,2,0,1,0.5752
4,210,5,1,1,1,3,2,1,1,0.7005
4,211,5,1,1,1,2,2,1,1,0.5162
4,212,5,1,2,1,1,1,0,2,0.6533
4,213,5,1,1,2,3,1,0,1,0.6036
4,214,5,1,2,2,2,2,1,2,0.6531
4,215,5,1,2,1,6,2,0,2,0.6034
4,216,5,1,2,1,5,2,0,2,0.5251
4,217,5,1,1,1,1,1,1,1,0.5811
4,218,5,1,1,2,6,2,0,1,0.6424
4,219,5,1,1,1,5,2,1,1,0.517
4,220,5,1,1,2,1,2,0,1,0.5614
4,221,5,1,2,2,3,1,1,2,0.5418
4,222,5,1,2,1,3,2,0,2,0.5339
4,223,5,1,1,1,2,1,1,1,0.4621
4,224,5,1,1,2,4,2,0,1,0.5771
4,225,5,1,2,1,4,1,0,2,0.5744
4,226,5,1,2,2,1,2,1,2,0.9675
4,227,5,1,2,2,5,1,1,2,0.5244
4,228,5,1,2,1,5,1,0,2,0.493
4,229,5,1,1,1,6,2,1,1,0.5322
4,230,5,1,1,2,5,1,0,1,0.4081
4,231,5,1,2,2,3,2,1,2,0.4775
4,232,5,1,1,1,1,2,1,1,0.4645
4,233,5,1,1,2,6,1,0,1,0.7192
4,234,5,1,1,1,5,1,1,1,0.5115
4,235,5,1,1,2,1,1,0,1,0.6433
4,236,5,1,1,2,2,2,0,1,0.4825
4,237,5,1,2,2,6,2,1,2,0.5976
4,238,5,1,2,2,5,2,1,2,0.4786
4,239,5,1,2,1,3,1,0,2,0.6057
4,240,5,1,1,1,6,1,1,1,0.4629
4,241,6,2,2,2,1,2,1,2,1.031
4,242,6,2,1,1,1,2,1,1,0.5172
4,243,6,2,2,2,6,1,1,2,1.1258
4,244,6,2,1,1,6,1,1,1,0.5179
4,245,6,2,2,2,6,2,1,2,0.7256
4,246,6,2,2,2,3,1,1,2,0.7333
4,247,6,2,2,1,5,2,0,1,1.0374
4,248,6,2,2,2,2,2,1,2,1.5079
4,249,6,2,2,2,2,1,1,2,0.8317
4,250,6,2,1,1,1,1,1,1,1.2859
4,251,6,2,1,2,6,2,0,1,0.5773
4,252,6,2,2,2,5,1,1,2,0.5982
4,253,6,2,1,1,3,1,1,1,1.1193
4,254,6,2,1,1,6,2,1,1,0.7909
4,255,6,2,2,1,6,2,0,2,0.728
4,256,6,2,1,1,3,2,1,1,0.8688
4,257,6,2,1,2,1,2,0,1,0.7758
4,258,6,2,1,1,4,1,1,1,1.0969
4,259,6,2,2,1,2,1,0,2,0.6287
4,260,6,2,2,1,5,1,0,2,0.6025
4,261,6,2,2,2,1,1,1,2,1.0479
4,262,6,2,2,1,4,1,0,1,1.4301
4,263,6,2,1,2,2,2,0,2,1.029
4,264,6,2,2,1,4,2,0,2,1.1677
4,265,6,2,2,1,1,1,0,1,0.8327
4,266,6,2,1,2,5,2,0,1,1.1428
4,267,6,2,2,1,2,2,0,2,1.0116
4,268,6,2,2,1,1,2,0,2,0.8531
4,269,6,2,1,2,4,1,0,2,0.4753
4,270,6,2,1,1,5,2,1,2,0.5624
4,271,6,2,1,2,3,1,0,1,0.823
4,272,6,2,2,2,4,2,1,2,0.6307
4,273,6,2,1,2,5,1,0,1,1.2849
4,274,6,2,1,1,2,1,1,1,1.5062
4,275,6,2,2,1,3,2,0,2,0.6785
4,276,6,2,2,1,6,1,0,2,0.8494
4,277,6,2,2,2,4,1,1,2,1.1757
4,278,6,2,1,2,4,2,0,1,0.6605
4,279,6,2,1,1,2,2,1,1,1.2795
4,280,6,2,1,1,4,2,1,2,0.8438
4,281,6,2,1,2,3,2,0,1,0.7463
4,282,6,2,2,2,3,2,1,2,0.6076
4,283,6,2,1,2,2,1,0,1,1.6289
4,284,6,2,1,1,5,1,1,1,1.1146
4,285,6,2,1,2,6,1,0,2,1.2982
4,286,6,2,1,2,1,1,0,1,0.7654
4,287,6,2,2,2,5,2,1,1,1.4064
4,288,6,2,2,1,3,1,0,2,1.8962
4,289,7,2,2,1,1,1,0,2,1.3933
4,290,7,2,2,2,6,1,1,2,1.2946
4,291,7,2,2,1,2,1,0,2,1.0391
4,292,7,2,2,1,5,1,0,2,1.1771
4,293,7,2,1,2,6,2,0,1,0.5979
4,294,7,2,1,2,2,1,0,1,1.375
4,295,7,2,1,1,1,2,1,1,0.584
4,296,7,2,2,1,3,1,0,2,0.9014
4,297,7,2,2,2,2,1,1,2,0.6332
4,298,7,2,2,1,3,2,0,2,0.6475
4,299,7,2,1,2,5,2,0,1,1.115
4,300,7,2,2,2,4,2,1,2,0.7343
4,301,7,2,1,2,1,2,0,1,0.7302
4,302,7,2,1,1,2,2,1,1,0.6622
4,303,7,2,1,2,5,1,0,1,0.6529
4,304,7,2,2,2,5,2,1,2,0.6319
4,305,7,2,2,2,1,1,1,1,0.9779
4,306,7,2,1,1,3,1,1,1,0.943
4,307,7,2,1,1,5,1,1,1,0.5859
4,308,7,2,1,2,2,2,0,2,0.7348
4,309,7,2,2,1,6,2,0,2,1.7907
4,310,7,2,1,2,4,2,0,1,0.7799
4,311,7,2,1,1,6,1,1,1,0.589
4,312,7,2,2,2,6,2,1,2,0.5628
4,313,7,2,1,1,1,1,1,1,1.0956
4,314,7,2,2,1,5,2,0,2,1.3551
4,315,7,2,1,2,4,1,0,1,0.5405
4,316,7,2,1,2,3,1,0,1,0.7247
4,317,7,2,2,2,3,1,1,2,0.6971
4,318,7,2,2,2,1,2,1,2,0.6003
4,319,7,2,1,2,6,1,0,1,0.5858
4,320,7,2,1,2,1,1,0,1,0.5361
4,321,7,2,2,2,4,1,1,2,0.621
4,322,7,2,2,1,4,2,0,2,0.7228
4,323,7,2,1,1,3,2,1,1,0.8636
4,324,7,2,2,1,2,2,0,2,0.7941
4,325,7,2,1,2,3,2,0,1,0.5444
4,326,7,2,1,1,6,2,1,1,0.449
4,327,7,2,2,2,2,2,1,1,1.4078
4,328,7,2,2,1,6,1,0,2,0.7455
4,329,7,2,2,2,3,2,1,2,0.5663
4,330,7,2,2,1,1,2,0,1,0.6276
4,331,7,2,2,1,4,1,0,2,1.5504
4,332,7,2,1,1,4,2,1,1,0.6065
4,333,7,2,2,2,5,1,1,2,0.6678
4,334,7,2,1,1,2,1,1,2,0.8505
4,335,7,2,1,1,4,1,1,1,0.561
4,336,7,2,1,1,5,2,1,1,0.5179
4,337,8,1,1,1,4,1,1,1,0.6514
4,338,8,1,1,1,3,2,1,1,0.4554
4,339,8,1,1,2,2,1,0,1,0.6748
4,340,8,1,1,1,1,1,1,1,0.45
4,341,8,1,2,1,1,1,0,1,0.4083
4,342,8,1,2,1,5,1,0,2,0.7057
4,343,8,1,2,1,4,1,0,2,0.5736
4,344,8,1,2,2,5,1,1,2,0.4546
4,345,8,1,1,2,3,1,0,1,0.5174
4,346,8,1,2,2,6,2,1,2,0.5096
4,347,8,1,2,2,3,1,1,2,0.5253
4,348,8,1,1,1,1,2,1,1,0.477
4,349,8,1,2,1,3,1,0,2,0.5398
4,350,8,1,2,2,3,2,1,2,0.4561
4,351,8,1,1,1,5,2,1,1,0.519
4,352,8,1,1,1,2,1,1,1,0.511
4,353,8,1,2,2,1,2,1,2,0.6717
4,354,8,1,1,1,6,1,1,1,0.5043
4,355,8,1,1,2,5,1,0,2,0.4796
4,356,8,1,2,2,2,2,1,2,0.7703
4,357,8,1,2,2,4,1,1,2,0.5912
4,358,8,1,1,2,5,2,0,1,0.5362
4,359,8,1,1,2,3,2,0,1,0.5807
4,360,8,1,1,2,6,2,0,1,0.514
4,361,8,1,2,2,2,1,1,2,0.5466
4,362,8,1,2,2,5,2,1,2,0.608
4,363,8,1,2,1,2,1,0,2,0.6053
4,364,8,1,2,2,6,1,1,2,0.4746
4,365,8,1,1,1,3,1,1,1,0.8574
4,366,8,1,1,2,2,2,0,1,0.7239
4,367,8,1,1,1,4,2,1,1,0.516
4,368,8,1,1,2,1,1,0,2,0.5082
4,369,8,1,1,2,4,1,0,1,0.5481
4,370,8,1,1,2,4,2,0,1,0.4814
4,371,8,1,2,1,2,2,0,2,0.5966
4,372,8,1,1,1,6,2,1,1,0.4775
4,373,8,1,2,1,1,2,0,2,0.6043
4,374,8,1,2,1,3,2,0,2,0.8341
4,375,8,1,2,2,1,1,1,2,0.6366
4,376,8,1,1,2,1,2,0,1,0.4993
4,377,8,1,2,1,6,2,0,2,0.579
4,378,8,1,1,1,5,1,1,1,0.5405
4,379,8,1,2,1,4,2,0,2,0.5327
4,380,8,1,2,1,6,1,0,1,0.4726
4,381,8,1,1,2,6,1,0,1,0.6236
4,382,8,1,2,2,4,2,1,2,0.5386
4,383,8,1,1,1,2,2,1,1,0.5006
4,384,8,1,2,1,5,2,0,2,0.6326
5,1,1,1,1,1,1,1,1,1,0.7468
5,2,1,1,1,1,4,2,1,1,0.6957
5,3,1,1,1,2,3,1,0,1,0.9946
5,4,1,1,2,2,6,1,1,2,0.6037
5,5,1,1,1,2,5,1,0,1,0.7813
5,6,1,1,2,2,4,1,1,2,0.5903
5,7,1,1,1,1,2,2,1,1,1.5477
5,8,1,1,2,1,2,1,0,2,1.168
5,9,1,1,1,1,1,2,1,1,0.897
5,10,1,1,2,2,5,1,1,2,0.9084
5,11,1,1,2,1,3,2,0,7,7
5,12,1,1,2,2,3,2,1,2,0.8265
5,13,1,1,2,2,2,1,1,2,0.7688
5,14,1,1,2,1,1,1,0,2,0.7176
5,15,1,1,1,1,2,1,1,1,0.5973
5,16,1,1,2,1,5,1,0,2,0.7983
5,17,1,1,1,2,6,1,0,1,0.8685
5,18,1,1,1,1,4,1,1,1,0.991
5,19,1,1,2,1,2,2,0,2,0.7163
5,20,1,1,2,2,5,2,1,2,0.6482
5,21,1,1,2,1,4,1,0,2,0.703
5,22,1,1,1,2,6,2,0,1,0.7342
5,23,1,1,2,2,3,1,1,2,0.8581
5,24,1,1,1,2,2,1,0,1,0.573
5,25,1,1,2,2,1,2,1,2,0.5939
5,26,1,1,1,2,2,2,0,1,1.0275
5,27,1,1,1,2,4,2,0,1,1.2935
5,28,1,1,2,2,4,2,1,2,0.5209
5,29,1,1,2,1,4,2,0,2,0.5652
5,30,1,1,2,1,1,2,0,2,0.6788
5,31,1,1,1,1,5,2,1,1,0.646
5,32,1,1,2,2,2,2,1,2,0.5963
5,33,1,1,1,2,1,1,0,1,1.3734
5,34,1,1,2,1,5,2,0,2,0.9259
5,35,1,1,1,1,3,1,1,1,0.7101
5,36,1,1,1,1,5,1,1,1,0.6302
5,37,1,1,2,2,6,2,1,2,0.6445
5,38,1,1,2,1,3,1,0,2,0.7867
5,39,1,1,1,1,3,2,1,1,0.7238
5,40,1,1,1,1,6,1,1,1,0.7837
5,41,1,1,2,2,1,1,1,2,0.645
5,42,1,1,1,1,6,2,1,1,0.7755
5,43,1,1,1,2,4,1,0,1,0.6368
5,44,1,1,1,2,1,2,0,1,0.8431
5,45,1,1,2,1,6,1,0,2,0.8494
5,46,1,1,1,2,3,2,0,1,0.7041
5,47,1,1,2,1,6,2,0,2,0.7235
5,48,1,1,1,2,5,2,0,1,0.7194
5,49,2,2,1,1,1,2,1,1,1.1074
5,50,2,2,2,1,6,1,0,2,0.7908
5,51,2,2,2,2,3,2,1,2,0.9082
5,52,2,2,1,1,5,2,1,1,0.7157
5,53,2,2,2,1,5,2,0,1,1.0956
5,54,2,2,2,1,3,2,0,2,1.1233
5,55,2,2,1,1,2,2,1,1,1.243
5,56,2,2,2,2,5,2,1,2,0.7211
5,57,2,2,1,1,6,2,1,1,0.7053
5,58,2,2,2,2,6,1,1,2,0.6019
5,59,2,2,2,2,4,1,1,2,1.0877
5,60,2,2,2,1,6,2,0,2,0.7828
5,61,2,2,1,2,3,2,0,1,0.7317
5,62,2,2,2,2,3,1,1,1,1.024
5,63,2,2,1,2,1,1,0,1,1.3143
5,64,2,2,2,1,4,1,0,2,0.6579
5,65,2,2,1,2,2,1,0,2,1.3004
5,66,2,2,1,1,4,2,1,1,0.6918
5,67,2,2,1,1,3,2,1,1,0.6995
5,68,2,2,1,2,6,1,0,1,0.5909
5,69,2,2,1,2,2,2,0,1,1.112
5,70,2,2,1,2,6,2,0,1,0.6961
5,71,2,2,1,2,5,1,0,1,0.8723
5,72,2,2,2,1,2,2,0,1,1.0875
5,73,2,2,2,1,5,1,0,1,0.9989
5,74,2,2,2,2,1,1,1,2,0.6726
5,75,2,2,2,2,5,1,1,2,0.9599
5,76,2,2,2,2,4,2,1,2,0.6682
5,77,2,2,1,1,5,1,1,1,0.6067
5,78,2,2,2,2,2,1,1,2,1.116
5,79,2,2,2,1,3,1,0,2,1.1716
5,80,2,2,1,1,4,1,1,1,0.6448
5,81,2,2,2,2,6,2,1,2,0.796
5,82,2,2,1,1,2,1,1,2,1.2501
5,83,2,2,2,2,1,2,1,2,0.7003
5,84,2,2,1,2,4,1,0,1,0.6558
5,85,2,2,1,2,1,2,0,2,0.67
5,86,2,2,1,2,3,1,0,1,0.8013
5,87,2,2,1,1,1,1,1,1,0.6442
5,88,2,2,2,1,1,2,0,2,0.7225
5,89,2,2,1,2,5,2,0,1,0.7706
5,90,2,2,1,2,4,2,0,1,0.5679
5,91,2,2,2,1,2,1,0,2,1.2928
5,92,2,2,2,2,2,2,1,1,1.0962
5,93,2,2,1,1,3,1,1,1,0.9436
5,94,2,2,2,1,4,2,0,2,0.844
5,95,2,2,2,1,1,1,0,2,0.7744
5,96,2,2,1,1,6,1,1,1,0.9675
5,97,3,2,1,1,6,2,1,1,1.583
5,98,3,2,2,1,4,2,0,2,0.737
5,99,3,2,1,2,2,1,0,2,1.5649
5,100,3,2,1,2,4,1,0,1,0.8254
5,101,3,2,2,1,3,2,0,2,1.1634
5,102,3,2,1,2,5,2,0,1,0.7762
5,103,3,2,1,1,4,2,1,1,0.6493
5,104,3,2,1,1,2,2,1,2,1.024
5,105,3,2,1,2,1,2,0,1,0.6743
5,106,3,2,2,1,1,1,0,2,0.857
5,107,3,2,2,2,6,1,1,2,0.6595
5,108,3,2,2,1,6,1,0,2,0.662
5,109,3,2,1,2,1,1,0,1,0.5887
5,110,3,2,2,1,2,1,0,1,1.2431
5,111,3,2,1,2,4,2,0,1,0.6932
5,112,3,2,2,2,2,1,1,2,1.3409
5,113,3,2,2,2,5,1,1,2,0.725
5,114,3,2,1,1,3,1,1,1,0.6569
5,115,3,2,2,1,1,2,0,2,0.6594
5,116,3,2,2,2,5,2,1,2,0.7546
5,117,3,2,1,2,2,2,0,1,0.919
5,118,3,2,1,1,3,2,1,1,0.7266
5,119,3,2,2,2,1,1,1,2,0.7748
5,120,3,2,1,1,4,1,1,1,0.5956
5,121,3,2,2,2,1,2,1,2,0.6452
5,122,3,2,2,1,5,1,0,2,1.02
5,123,3,2,2,1,2,2,0,1,1.3096
5,124,3,2,2,1,6,2,0,2,0.6892
5,125,3,2,1,1,5,1,1,1,0.5923
5,126,3,2,1,1,5,2,1,1,0.5256
5,127,3,2,2,2,3,2,1,2,0.8378
5,128,3,2,2,1,3,1,0,2,0.9604
5,129,3,2,2,2,2,2,1,2,0.7731
5,130,3,2,1,2,6,1,0,1,0.6631
5,131,3,2,1,1,1,2,1,1,0.9216
5,132,3,2,1,2,5,1,0,1,0.9212
5,133,3,2,1,1,2,1,1,2,1.2409
5,134,3,2,1,2,6,2,0,1,0.7434
5,135,3,2,2,1,5,2,0,2,0.977
5,136,3,2,1,1,6,1,1,1,0.7022
5,137,3,2,1,2,3,1,0,1,0.6459
5,138,3,2,1,2,3,2,0,1,0.6013
5,139,3,2,2,1,4,1,0,1,1.4829
5,140,3,2,2,2,4,2,1,2,0.9302
5,141,3,2,1,1,1,1,1,1,0.9064
5,142,3,2,2,2,4,1,1,2,0.7427
5,143,3,2,2,2,3,1,1,2,0.7675
5,144,3,2,2,2,6,2,1,2,0.8206
5,145,4,1,2,1,6,1,0,7,7
5,146,4,1,1,2,4,1,0,1,1.2369
5,147,4,1,2,2,4,2,1,2,0.6629
5,148,4,1,1,1,3,2,1,1,0.7294
5,149,4,1,1,1,1,2,1,1,0.5855
5,150,4,1,2,1,6,2,0,2,0.7866
5,151,4,1,1,1,2,1,1,1,0.6479
5,152,4,1,1,1,6,2,1,1,1.0226
5,153,4,1,2,2,1,2,1,2,0.6369
5,154,4,1,1,1,5,2,1,1,0.6159
5,155,4,1,2,2,6,2,1,2,0.6066
5,156,4,1,1,2,4,2,0,1,0.5399
5,157,4,1,1,1,5,1,1,1,0.6601
5,158,4,1,1,2,3,2,0,1,0.575
5,159,4,1,1,2,3,1,0,1,0.7004
5,160,4,1,1,2,1,1,0,1,0.6441
5,161,4,1,1,1,4,2,1,1,0.5355
5,162,4,1,2,2,6,1,1,2,0.6035
5,163,4,1,2,1,3,2,0,2,0.7928
5,164,4,1,2,1,1,2,0,2,0.6659
5,165,4,1,1,2,1,2,0,2,0.4764
5,166,4,1,1,2,5,1,0,1,0.7083
5,167,4,1,1,2,5,2,0,1,0.6402
5,168,4,1,1,2,6,1,0,1,0.7185
5,169,4,1,2,2,2,2,1,2,0.7314
5,170,4,1,2,2,5,2,1,2,0.5992
5,171,4,1,2,1,4,2,0,2,0.6606
5,172,4,1,1,1,3,1,1,1,0.8551
5,173,4,1,1,1,4,1,1,1,0.5414
5,174,4,1,2,1,1,1,0,2,0.6379
5,175,4,1,1,2,2,1,0,1,0.6809
5,176,4,1,2,2,3,1,1,2,0.5201
5,177,4,1,2,1,4,1,0,2,0.8492
5,178,4,1,2,2,2,1,1,2,0.5355
5,179,4,1,1,1,2,2,1,1,0.6792
5,180,4,1,2,2,5,1,1,2,0.6582
5,181,4,1,2,1,2,2,0,2,0.7129
5,182,4,1,1,1,1,1,1,1,0.6449
5,183,4,1,1,2,2,2,0,1,0.9673
5,184,4,1,2,2,3,2,1,2,0.5763
5,185,4,1,2,1,5,2,0,2,0.7539
5,186,4,1,2,1,3,1,0,2,0.7263
5,187,4,1,2,1,5,1,0,2,0.67
5,188,4,1,2,2,1,1,1,2,0.7247
5,189,4,1,1,2,6,2,0,1,0.8486
5,190,4,1,1,1,6,1,1,1,0.6511
5,191,4,1,2,2,4,1,1,2,0.6235
5,192,4,1,2,1,2,1,0,2,0.7187
5,193,5,2,1,2,4,2,0,2,1.0635
5,194,5,2,2,2,3,1,1,2,0.7829
5,195,5,2,2,2,6,2,1,2,0.9878
5,196,5,2,1,2,2,2,0,1,1.3531
5,197,5,2,1,2,5,2,0,1,0.7018
5,198,5,2,1,2,2,1,0,1,0.6455
5,199,5,2,1,1,3,1,1,1,0.5958
5,200,5,2,2,1,5,1,0,2,0.9771
5,201,5,2,2,1,3,2,0,2,0.6789
5,202,5,2,2,2,3,2,1,2,0.7454
5,203,5,2,1,1,2,1,1,1,0.9215
5,204,5,2,1,1,1,2,1,1,0.6012
5,205,5,2,1,2,3,2,0,1,0.5867
5,206,5,2,1,1,6,1,1,1,0.6481
5,207,5,2,2,1,2,1,0,2,1.4708
5,208,5,2,2,1,3,1,0,2,1.0977
5,209,5,2,2,1,6,1,0,1,0.9143
5,210,5,2,2,1,1,2,0,2,0.7057
5,211,5,2,2,2,6,1,1,2,0.5971
5,212,5,2,2,1,2,2,0,2,1.1065
5,213,5,2,1,2,6,1,0,1,0.6266
5,214,5,2,1,1,6,2,1,2,0.7048
5,215,5,2,2,2,4,2,1,2,1.0568
5,216,5,2,1,1,4,1,1,1,0.5599
5,217,5,2,2,2,5,1,1,2,0.9125
5,218,5,2,2,2,1,2,1,2,0.604
5,219,5,2,2,2,2,1,1,2,1.1251
5,220,5,2,1,1,5,1,1,1,0.6047
5,221,5,2,1,1,1,1,1,1,0.5903
5,222,5,2,1,2,4,1,0,1,0.6516
5,223,5,2,1,1,2,2,1,1,1.1021
5,224,5,2,1,2,6,2,0,1,0.6575
5,225,5,2,2,1,1,1,0,2,0.916
5,226,5,2,1,1,5,2,1,1,0.6714
5,227,5,2,2,2,4,1,1,2,0.7262
5,228,5,2,1,2,1,1,0,1,0.8619
5,229,5,2,1,1,3,2,1,1,0.5768
5,230,5,2,1,2,3,1,0,1,0.5744
5,231,5,2,1,1,4,2,1,1,0.531
5,232,5,2,2,2,5,2,1,2,0.9241
5,233,5,2,1,2,1,2,0,1,0.6679
5,234,5,2,2,1,6,2,0,2,0.7342
5,235,5,2,2,2,2,2,1,1,1.1782
5,236,5,2,2,1,4,1,0,2,0.7799
5,237,5,2,2,2,1,1,1,2,1.0657
5,238,5,2,2,1,4,2,0,2,0.8131
5,239,5,2,2,1,5,2,0,2,1.0871
5,240,5,2,1,2,5,1,0,1,0.5902
5,241,6,1,2,2,1,1,1,2,0.6024
5,242,6,1,2,1,3,1,0,2,0.6637
5,243,6,1,1,1,3,2,1,1,0.55
5,244,6,1,2,2,5,1,1,2,0.6062
5,245,6,1,2,1,4,2,0,2,0.9
5,246,6,1,2,1,6,1,0,2,0.5796
5,247,6,1,1,1,6,2,1,1,0.5129
5,248,6,1,1,1,1,2,1,1,0.5574
5,249,6,1,1,2,4,2,0,1,0.5378
5,250,6,1,1,2,2,1,0,2,0.5417
5,251,6,1,2,1,1,2,0,2,0.8141
5,252,6,1,1,1,3,1,1,1,0.5879
5,253,6,1,2,2,4,2,1,2,0.5734
5,254,6,1,1,1,4,2,1,1,0.8385
5,255,6,1,1,2,4,1,0,1,0.641
5,256,6,1,1,2,1,2,0,1,0.748
5,257,6,1,1,2,6,2,0,1,0.6681
5,258,6,1,2,2,6,2,1,2,0.5426
5,259,6,1,2,2,5,2,1,2,0.6628
5,260,6,1,1,2,5,2,0,1,0.6013
5,261,6,1,2,1,2,2,0,2,0.656
5,262,6,1,2,2,6,1,1,2,0.7748
5,263,6,1,2,1,1,1,0,2,0.7119
5,264,6,1,1,1,2,1,1,1,0.6085
5,265,6,1,2,1,6,2,0,2,0.6058
5,266,6,1,2,1,5,2,0,2,0.6031
5,267,6,1,2,1,3,2,0,2,0.787
5,268,6,1,2,2,3,2,1,2,0.6247
5,269,6,1,1,2,3,2,0,1,0.639
5,270,6,1,2,2,2,1,1,2,0.5304
5,271,6,1,1,2,3,1,0,1,1.2788
5,272,6,1,1,2,2,2,0,1,0.6577
5,273,6,1,2,2,4,1,1,2,0.6824
5,274,6,1,1,2,1,1,0,1,0.7893
5,275,6,1,1,2,6,1,0,1,0.7264
5,276,6,1,1,1,2,2,1,1,0.6988
5,277,6,1,2,1,5,1,0,2,0.7587
5,278,6,1,1,1,5,2,1,1,0.5913
5,279,6,1,1,2,5,1,0,1,1.1007
5,280,6,1,1,1,1,1,1,1,0.9238
5,281,6,1,1,1,6,1,1,1,0.7954
5,282,6,1,2,1,2,1,0,2,0.5288
5,283,6,1,2,2,2,2,1,2,0.7247
5,284,6,1,1,1,4,1,1,1,0.586
5,285,6,1,2,2,3,1,1,2,0.7113
5,286,6,1,2,1,4,1,0,2,0.7072
5,287,6,1,1,1,5,1,1,1,0.6679
5,288,6,1,2,2,1,2,1,2,0.6704
5,289,7,1,1,2,1,2,0,1,1.5079
5,290,7,1,2,1,6,2,0,2,0.7272
5,291,7,1,1,1,5,2,1,2,0.6709
5,292,7,1,1,1,3,1,1,1,0.6793
5,293,7,1,1,1,2,2,1,1,1.0827
5,294,7,1,2,2,1,1,1,2,0.5859
5,295,7,1,2,2,3,1,1,2,0.5833
5,296,7,1,1,2,6,1,0,1,0.7321
5,297,7,1,2,1,1,2,0,2,1.0598
5,298,7,1,2,2,2,1,1,2,0.6506
5,299,7,1,1,2,2,1,0,2,0.653
5,300,7,1,2,1,2,1,0,2,0.7724
5,301,7,1,1,1,1,2,1,1,0.7095
5,302,7,1,2,2,6,2,1,2,0.64
5,303,7,1,2,1,3,2,0,2,0.7823
5,304,7,1,2,1,4,2,0,2,0.9231
5,305,7,1,2,2,6,1,1,2,0.6668
5,306,7,1,2,2,4,1,1,2,0.6693
5,307,7,1,2,2,2,2,1,2,0.6887
5,308,7,1,1,1,1,1,1,1,0.5802
5,309,7,1,2,1,5,1,0,2,0.7695
5,310,7,1,2,1,5,2,0,2,0.7066
5,311,7,1,1,1,4,2,1,1,0.7952
5,312,7,1,1,2,4,1,0,1,0.6683
5,313,7,1,1,2,5,1,0,1,0.6068
5,314,7,1,1,2,4,2,0,1,0.6563
5,315,7,1,2,1,6,1,0,2,0.5948
5,316,7,1,2,2,5,2,1,2,0.5804
5,317,7,1,1,2,2,2,0,1,0.6417
5,318,7,1,1,1,4,1,1,1,0.592
5,319,7,1,2,1,2,2,0,2,0.6063
5,320,7,1,2,1,1,1,0,2,1.1156
5,321,7,1,2,2,5,1,1,2,0.799
5,322,7,1,2,2,4,2,1,2,0.6603
5,323,7,1,1,2,3,2,0,1,0.8431
5,324,7,1,1,1,6,2,1,1,0.6456
5,325,7,1,2,2,1,2,1,2,0.648
5,326,7,1,1,1,6,1,1,1,0.6387
5,327,7,1,1,1,3,2,1,1,0.5942
5,328,7,1,2,1,4,1,0,2,0.7195
5,329,7,1,1,2,5,2,0,1,0.5522
5,330,7,1,2,2,3,2,1,2,0.5848
5,331,7,1,1,2,6,2,0,2,0.5939
5,332,7,1,2,1,3,1,0,2,0.8075
5,333,7,1,1,2,3,1,0,1,0.8255
5,334,7,1,1,2,1,1,0,1,0.6398
5,335,7,1,1,1,2,1,1,1,0.6305
5,336,7,1,1,1,5,1,1,1,0.6683
5,337,8,2,2,2,4,1,1,2,0.872
5,338,8,2,2,1,1,2,0,2,0.8547
5,339,8,2,1,1,1,2,1,1,0.7212
5,340,8,2,2,1,2,1,0,2,1.502
5,341,8,2,2,2,1,1,1,2,0.8376
5,342,8,2,1,1,3,2,1,1,0.8961
5,343,8,2,1,1,2,2,1,1,1.2967
5,344,8,2,1,2,2,1,0,2,1.0478
5,345,8,2,1,2,6,1,0,1,1.0063
5,346,8,2,2,1,1,1,0,2,0.6036
5,347,8,2,1,2,4,1,0,1,0.9732
5,348,8,2,1,1,2,1,1,1,1.0994
5,349,8,2,2,2,4,2,1,2,0.8755
5,350,8,2,2,1,2,2,0,1,1.0384
5,351,8,2,2,2,1,2,1,2,0.6534
5,352,8,2,2,1,6,1,0,2,0.9001
5,353,8,2,2,2,5,1,1,2,0.8645
5,354,8,2,1,2,1,1,0,1,0.6029
5,355,8,2,2,2,2,2,1,1,1.0483
5,356,8,2,1,1,6,1,1,1,0.8148
5,357,8,2,2,2,6,1,1,2,0.8328
5,358,8,2,1,2,1,2,0,1,0.7228
5,359,8,2,2,1,5,2,0,2,0.8519
5,360,8,2,2,2,3,2,1,2,0.8633
5,361,8,2,1,2,4,2,0,1,0.6018
5,362,8,2,2,2,6,2,1,2,0.872
5,363,8,2,2,2,5,2,1,2,0.6326
5,364,8,2,1,1,4,1,1,1,0.7918
5,365,8,2,2,2,3,1,1,2,0.6414
5,366,8,2,1,1,4,2,1,1,0.6439
5,367,8,2,2,1,4,2,0,2,0.6685
5,368,8,2,1,2,5,2,0,1,0.671
5,369,8,2,1,2,5,1,0,1,0.6617
5,370,8,2,2,1,5,1,0,2,0.7165
5,371,8,2,2,2,2,1,1,1,1.0846
5,372,8,2,1,1,5,2,1,1,0.629
5,373,8,2,1,2,3,1,0,1,0.7072
5,374,8,2,1,2,6,2,0,1,0.651
5,375,8,2,1,1,5,1,1,1,0.6468
5,376,8,2,2,1,3,1,0,2,0.8531
5,377,8,2,1,2,3,2,0,1,0.6034
5,378,8,2,2,1,6,2,0,2,0.8995
5,379,8,2,2,1,4,1,0,1,1.2191
5,380,8,2,1,1,3,1,1,1,0.7216
5,381,8,2,1,1,1,1,1,1,0.6756
5,382,8,2,2,1,3,2,0,2,0.7826
5,383,8,2,1,1,6,2,1,1,0.7367
5,384,8,2,1,2,2,2,0,2,1.3086
6,1,1,2,2,2,5,2,1,2,0.8895
6,2,1,2,2,1,1,2,0,2,1.0172
6,3,1,2,2,1,4,2,0,1,0.8704
6,4,1,2,1,2,3,2,0,2,1.0694
6,5,1,2,1,2,3,1,0,2,0.9639
6,6,1,2,1,1,3,1,1,1,0.7605
6,7,1,2,2,1,6,2,0,2,0.8609
6,8,1,2,1,2,1,1,0,1,0.9951
6,9,1,2,1,2,2,1,0,1,0.7844
6,10,1,2,2,2,5,1,1,2,0.7502
6,11,1,2,2,1,5,2,0,2,0.7865
6,12,1,2,2,1,1,1,0,2,0.7759
6,13,1,2,1,1,1,1,1,1,0.6372
6,14,1,2,1,2,5,2,0,1,0.7154
6,15,1,2,1,2,6,1,0,1,0.6186
6,16,1,2,2,1,4,1,0,1,1.1163
6,17,1,2,2,2,1,2,1,2,0.6723
6,18,1,2,2,2,4,2,1,2,0.6513
6,19,1,2,1,1,5,1,1,2,0.7296
6,20,1,2,1,2,5,1,0,1,0.6335
6,21,1,2,1,1,1,2,1,1,1.2746
6,22,1,2,1,1,4,2,1,1,0.9735
6,23,1,2,1,1,6,1,1,2,0.7981
6,24,1,2,2,2,1,1,1,2,0.7712
6,25,1,2,2,2,2,1,1,1,1.168
6,26,1,2,2,2,6,2,1,2,0.8168
6,27,1,2,2,1,3,1,0,2,0.7944
6,28,1,2,2,2,6,1,1,2,0.6674
6,29,1,2,1,1,3,2,1,1,1.1179
6,30,1,2,2,2,3,1,1,1,1.0103
6,31,1,2,1,1,2,1,1,1,0.8879
6,32,1,2,2,2,4,1,1,2,0.783
6,33,1,2,1,2,1,2,0,1,0.6679
6,34,1,2,2,1,6,1,0,2,0.7344
6,35,1,2,2,1,3,2,0,1,1.1665
6,36,1,2,1,2,2,2,0,2,1.1353
6,37,1,2,2,1,2,1,0,1,0.9474
6,38,1,2,1,1,6,2,1,1,0.7323
6,39,1,2,1,2,4,1,0,1,1.0364
6,40,1,2,2,2,3,2,1,2,1.1627
6,41,1,2,1,2,4,2,0,1,0.735
6,42,1,2,1,1,5,2,1,1,0.7073
6,43,1,2,2,1,5,1,0,2,0.651
6,44,1,2,1,1,2,2,1,2,0.9736
6,45,1,2,2,2,2,2,1,1,0.9504
6,46,1,2,2,1,2,2,0,1,1.9747
6,47,1,2,1,1,4,1,1,1,1.3472
6,48,1,2,1,2,6,2,0,1,0.7195
6,49,2,1,1,1,1,2,1,1,1.2859
6,50,2,1,1,2,2,1,0,1,0.8451
6,51,2,1,1,2,2,2,0,1,0.6998
6,52,2,1,1,1,4,1,1,1,0.7075
6,53,2,1,2,2,5,2,1,2,0.5872
6,54,2,1,1,2,5,1,0,1,0.6131
6,55,2,1,1,1,2,1,1,1,0.651
6,56,2,1,1,2,4,2,0,1,0.6652
6,57,2,1,1,1,2,2,1,1,0.6037
6,58,2,1,1,2,6,1,0,1,0.7409
6,59,2,1,2,2,5,1,1,2,1.0972
6,60,2,1,1,1,3,1,1,1,0.6526
6,61,2,1,1,2,1,1,0,1,0.9751
6,62,2,1,2,1,5,1,0,2,0.724
6,63,2,1,1,1,6,2,1,1,0.9759
6,64,2,1,2,2,1,1,1,2,0.9167
6,65,2,1,2,2,6,2,1,2,0.6604
6,66,2,1,2,2,4,2,1,2,0.7908
6,67,2,1,2,2,3,1,1,2,0.6404
6,68,2,1,2,2,2,2,1,2,0.6547
6,69,2,1,1,1,5,1,1,1,0.5932
6,70,2,1,2,2,3,2,1,2,0.567
6,71,2,1,2,2,6,1,1,2,0.9365
6,72,2,1,2,1,3,1,0,2,0.7965
6,73,2,1,2,1,1,2,0,2,0.7335
6,74,2,1,1,2,5,2,0,1,0.6654
6,75,2,1,2,1,3,2,0,2,0.6561
6,76,2,1,2,1,2,1,0,2,1.1068
6,77,2,1,1,2,3,1,0,1,0.5863
6,78,2,1,1,1,5,2,1,1,1.3634
6,79,2,1,1,1,4,2,1,1,0.6077
6,80,2,1,1,2,3,2,0,1,0.861
6,81,2,1,2,1,6,1,0,2,0.6635
6,82,2,1,2,1,1,1,0,2,0.5902
6,83,2,1,2,1,5,2,0,2,0.7038
6,84,2,1,1,1,6,1,1,1,0.5835
6,85,2,1,2,1,4,2,0,2,1.017
6,86,2,1,1,2,1,2,0,1,1.0623
6,87,2,1,2,1,2,2,0,2,0.6008
6,88,2,1,2,2,2,1,1,2,0.7144
6,89,2,1,2,1,6,2,0,2,0.786
6,90,2,1,2,2,4,1,1,2,0.7636
6,91,2,1,2,2,1,2,1,2,0.5726
6,92,2,1,1,1,1,1,1,1,0.5818
6,93,2,1,1,1,3,2,1,1,0.9226
6,94,2,1,1,2,6,2,0,1,0.7303
6,95,2,1,1,2,4,1,0,1,0.8542
6,96,2,1,2,1,4,1,0,2,0.8605
6,97,3,1,2,1,1,2,0,2,1.4944
6,98,3,1,1,2,3,1,0,1,0.9227
6,99,3,1,2,1,4,1,0,2,0.7068
6,100,3,1,1,2,6,2,0,1,0.5865
6,101,3,1,1,2,6,1,0,1,0.9273
6,102,3,1,2,2,5,1,1,2,0.671
6,103,3,1,1,1,1,2,1,1,0.65
6,104,3,1,2,2,1,1,1,2,0.7805
6,105,3,1,2,2,2,1,1,2,0.7175
6,106,3,1,1,2,1,2,0,1,0.5215
6,107,3,1,1,1,5,1,1,1,0.5776
6,108,3,1,1,1,3,1,1,1,0.6272
6,109,3,1,1,1,4,2,1,1,0.601
6,110,3,1,1,2,5,2,0,1,0.5866
6,111,3,1,1,1,2,1,1,1,0.6074
6,112,3,1,1,2,4,1,0,1,0.593
6,113,3,1,2,1,5,2,0,2,0.6426
6,114,3,1,2,2,5,2,1,2,0.6451
6,115,3,1,1,2,2,1,0,1,0.6071
6,116,3,1,1,2,2,2,0,1,0.5927
6,117,3,1,2,1,6,1,0,2,0.7298
6,118,3,1,1,1,6,1,1,1,0.5977
6,119,3,1,2,2,2,2,1,2,0.595
6,120,3,1,2,2,6,2,1,2,0.5924
6,121,3,1,2,2,1,2,1,2,0.5257
6,122,3,1,2,1,3,1,0,2,0.7738
6,123,3,1,2,1,5,1,0,2,0.9266
6,124,3,1,2,1,1,1,0,2,0.7224
6,125,3,1,1,1,2,2,1,1,0.9103
6,126,3,1,2,1,4,2,0,2,0.6018
6,127,3,1,2,2,3,1,1,2,0.7439
6,128,3,1,2,1,6,2,0,2,0.9201
6,129,3,1,1,1,4,1,1,1,0.7277
6,130,3,1,1,1,3,2,1,1,0.9039
6,131,3,1,1,2,5,1,0,1,0.752
6,132,3,1,2,1,3,2,0,2,0.7009
6,133,3,1,2,1,2,2,0,2,0.685
6,134,3,1,2,2,6,1,1,2,1.304
6,135,3,1,1,1,5,2,1,1,0.6631
6,136,3,1,2,2,4,2,1,2,0.6656
6,137,3,1,1,2,1,1,0,1,0.6968
6,138,3,1,1,2,3,2,0,1,1.1525
6,139,3,1,1,2,4,2,0,1,0.7652
6,140,3,1,2,2,3,2,1,2,0.7244
6,141,3,1,2,1,2,1,0,7,7
6,142,3,1,1,1,1,1,1,1,0.5983
6,143,3,1,2,2,4,1,1,2,0.8633
6,144,3,1,1,1,6,2,1,1,0.6659
6,145,4,2,2,1,1,2,0,1,1.1495
6,146,4,2,1,1,5,2,1,1,0.827
6,147,4,2,1,2,2,1,0,2,1.1533
6,148,4,2,1,2,5,1,0,1,0.6101
6,149,4,2,1,1,2,1,1,1,1.0084
6,150,4,2,2,1,3,1,0,1,1.4899
6,151,4,2,1,2,2,2,0,1,0.821
6,152,4,2,1,2,1,2,0,1,0.7228
6,153,4,2,1,2,1,1,0,1,0.6768
6,154,4,2,1,1,4,2,1,2,1.092
6,155,4,2,2,1,5,2,0,1,1.5272
6,156,4,2,1,2,6,1,0,1,0.7878
6,157,4,2,1,1,3,2,1,2,0.8528
6,158,4,2,2,2,6,2,1,2,0.9591
6,159,4,2,2,2,2,1,1,2,0.9234
6,160,4,2,1,2,4,1,0,1,0.6032
6,161,4,2,2,2,5,1,1,2,0.6291
6,162,4,2,1,1,1,2,1,1,0.7713
6,163,4,2,2,1,6,1,0,2,1.0925
6,164,4,2,2,2,1,1,1,2,0.9966
6,165,4,2,1,1,5,1,1,1,0.6056
6,166,4,2,2,2,4,1,1,1,0.6671
6,167,4,2,2,2,1,2,1,2,0.9732
6,168,4,2,2,2,3,2,1,2,0.8618
6,169,4,2,1,1,4,1,1,1,0.7453
6,170,4,2,1,2,5,2,0,1,0.6419
6,171,4,2,1,1,3,1,1,1,1.0401
6,172,4,2,1,1,6,1,1,1,0.6713
6,173,4,2,2,2,3,1,1,2,0.7901
6,174,4,2,2,2,6,1,1,2,1.3031
6,175,4,2,1,2,4,2,0,1,0.6702
6,176,4,2,2,1,4,2,0,2,1.429
6,177,4,2,1,2,3,2,0,1,0.8874
6,178,4,2,2,2,4,2,1,2,0.5906
6,179,4,2,1,1,1,1,1,1,0.6402
6,180,4,2,1,2,3,1,0,1,1.1076
6,181,4,2,1,1,6,2,1,1,0.919
6,182,4,2,2,1,1,1,0,2,1.1106
6,183,4,2,2,1,2,1,0,2,1.323
6,184,4,2,1,2,6,2,0,1,0.643
6,185,4,2,2,1,5,1,0,2,0.8663
6,186,4,2,2,1,4,1,0,2,0.6452
6,187,4,2,2,1,3,2,0,2,0.7875
6,188,4,2,2,2,5,2,1,2,0.637
6,189,4,2,2,2,2,2,1,1,0.9948
6,190,4,2,2,1,6,2,0,2,0.9599
6,191,4,2,1,1,2,2,1,1,1.2442
6,192,4,2,2,1,2,2,0,2,0.9784
6,193,5,1,2,2,4,1,1,2,1.2432
6,194,5,1,1,1,3,2,1,1,0.5228
6,195,5,1,1,2,5,1,0,1,0.643
6,196,5,1,2,2,5,1,1,2,0.605
6,197,5,1,1,1,1,1,1,1,0.6311
6,198,5,1,1,2,5,2,0,1,0.6049
6,199,5,1,1,2,6,2,0,1,0.5904
6,200,5,1,1,1,5,1,1,1,0.4649
6,201,5,1,1,1,4,2,1,1,0.708
6,202,5,1,1,1,1,2,1,1,0.5119
6,203,5,1,2,1,3,1,0,2,0.6725
6,204,5,1,2,1,6,1,0,2,0.5992
6,205,5,1,2,1,2,1,0,2,0.7245
6,206,5,1,2,1,1,1,0,2,0.7962
6,207,5,1,1,2,3,2,0,1,0.7973
6,208,5,1,1,1,4,1,1,1,0.5475
6,209,5,1,2,1,1,2,0,2,0.6559
6,210,5,1,2,2,4,2,1,2,0.5305
6,211,5,1,1,2,4,1,0,1,0.6035
6,212,5,1,1,1,2,1,1,1,0.5369
6,213,5,1,1,2,6,1,0,1,0.6048
6,214,5,1,1,2,1,2,0,1,0.6021
6,215,5,1,2,2,2,1,1,2,0.6635
6,216,5,1,2,1,3,2,0,2,0.5786
6,217,5,1,1,1,3,1,1,1,0.6398
6,218,5,1,2,2,1,1,1,2,0.5143
6,219,5,1,2,2,3,1,1,2,0.6227
6,220,5,1,2,2,3,2,1,2,0.7245
6,221,5,1,2,2,6,2,1,2,0.5402
6,222,5,1,2,1,4,2,0,2,0.7243
6,223,5,1,2,1,5,2,0,2,0.6562
6,224,5,1,1,2,2,1,0,1,0.6639
6,225,5,1,1,2,4,2,0,1,1.0909
6,226,5,1,1,2,3,1,0,1,0.7103
6,227,5,1,2,2,6,1,1,2,0.6474
6,228,5,1,2,1,4,1,0,2,0.6616
6,229,5,1,2,1,5,1,0,2,0.8561
6,230,5,1,1,1,6,1,1,1,0.6064
6,231,5,1,1,1,6,2,1,1,0.7317
6,232,5,1,1,2,2,2,0,1,0.8439
6,233,5,1,2,2,2,2,1,2,0.531
6,234,5,1,1,1,5,2,1,1,0.5401
6,235,5,1,1,1,2,2,1,1,0.6132
6,236,5,1,2,2,5,2,1,2,0.5635
6,237,5,1,1,2,1,1,0,1,0.7057
6,238,5,1,2,1,2,2,0,2,0.6142
6,239,5,1,2,2,1,2,1,2,0.6519
6,240,5,1,2,1,6,2,0,2,0.6427
6,241,6,2,2,2,3,1,1,2,0.8614
6,242,6,2,1,1,2,1,1,1,0.7331
6,243,6,2,1,2,4,1,0,1,0.6649
6,244,6,2,2,1,6,2,0,2,0.7955
6,245,6,2,1,1,1,2,1,1,1.1165
6,246,6,2,1,2,6,1,0,1,0.5962
6,247,6,2,2,1,5,1,0,2,0.6457
6,248,6,2,2,1,4,2,0,2,0.7763
6,249,6,2,1,1,1,1,1,1,0.6493
6,250,6,2,2,1,2,2,0,2,0.8321
6,251,6,2,2,2,4,2,1,2,0.6058
6,252,6,2,1,2,5,2,0,1,0.5392
6,253,6,2,1,1,5,2,1,1,0.4791
6,254,6,2,1,1,6,1,1,1,0.9259
6,255,6,2,2,1,2,1,0,2,0.9307
6,256,6,2,2,2,6,1,1,2,0.639
6,257,6,2,1,1,5,1,1,1,0.7055
6,258,6,2,1,2,1,2,0,1,1.1899
6,259,6,2,2,1,3,1,0,2,0.791
6,260,6,2,1,2,5,1,0,1,0.92
6,261,6,2,2,2,1,1,1,2,1.1757
6,262,6,2,1,1,4,1,1,1,1.1085
6,263,6,2,1,2,4,2,0,1,0.6404
6,264,6,2,2,2,5,1,1,2,0.7591
6,265,6,2,2,2,2,1,1,2,1.2957
6,266,6,2,1,2,3,2,0,1,0.924
6,267,6,2,1,1,4,2,1,1,0.6677
6,268,6,2,1,1,6,2,1,1,0.6062
6,269,6,2,2,2,5,2,1,2,0.7315
6,270,6,2,2,1,1,2,0,2,0.7274
6,271,6,2,1,2,2,2,0,1,1.2522
6,272,6,2,1,2,1,1,0,1,1.2307
6,273,6,2,2,1,4,1,0,2,0.7207
6,274,6,2,2,2,6,2,1,2,0.9137
6,275,6,2,2,2,3,2,1,2,0.7332
6,276,6,2,1,2,2,1,0,1,1.1131
6,277,6,2,1,1,3,1,1,1,0.7965
6,278,6,2,1,2,6,2,0,1,0.6578
6,279,6,2,2,1,3,2,0,2,0.7007
6,280,6,2,2,1,1,1,0,2,1.0924
6,281,6,2,2,2,2,2,1,2,1.0959
6,282,6,2,1,1,2,2,1,1,1.1515
6,283,6,2,2,1,6,1,0,2,1.0555
6,284,6,2,1,1,3,2,1,1,0.7338
6,285,6,2,1,2,3,1,0,1,0.7937
6,286,6,2,2,2,4,1,1,2,0.8117
6,287,6,2,2,1,5,2,0,2,0.8297
6,288,6,2,2,2,1,2,1,2,1.1089
6,289,7,2,1,1,6,2,1,2,1.4286
6,290,7,2,1,2,6,2,0,1,0.7075
6,291,7,2,2,2,6,1,1,2,0.7269
6,292,7,2,1,1,1,1,1,1,0.8103
6,293,7,2,1,1,3,1,1,1,1.0557
6,294,7,2,2,2,3,2,1,2,0.7221
6,295,7,2,2,1,1,2,0,2,0.8107
6,296,7,2,2,2,1,2,1,2,0.6889
6,297,7,2,1,2,5,2,0,1,1.2961
6,298,7,2,1,2,4,2,0,1,0.6803
6,299,7,2,1,2,3,2,0,2,0.927
6,300,7,2,2,2,2,1,1,2,0.9627
6,301,7,2,1,2,2,2,0,1,0.7637
6,302,7,2,1,1,4,1,1,1,0.9803
6,303,7,2,2,1,6,1,0,2,0.7696
6,304,7,2,1,1,6,1,1,1,0.6427
6,305,7,2,2,2,4,1,1,2,0.6268
6,306,7,2,2,2,2,2,1,1,1.4378
6,307,7,2,1,1,4,2,1,1,0.6357
6,308,7,2,1,1,2,1,1,1,0.9465
6,309,7,2,1,1,1,2,1,1,0.6027
6,310,7,2,2,2,1,1,1,2,0.664
6,311,7,2,2,1,5,2,0,2,0.7356
6,312,7,2,1,1,5,1,1,1,0.58
6,313,7,2,1,2,3,1,0,1,0.8451
6,314,7,2,1,2,1,2,0,1,1.0772
6,315,7,2,2,1,3,1,0,1,1.1159
6,316,7,2,1,2,5,1,0,2,0.8236
6,317,7,2,2,1,2,2,0,1,1.0174
6,318,7,2,2,1,6,2,0,2,1.0516
6,319,7,2,2,2,3,1,1,1,0.9624
6,320,7,2,2,2,4,2,1,2,0.6192
6,321,7,2,1,2,1,1,0,1,0.8776
6,322,7,2,2,2,5,2,1,2,0.8486
6,323,7,2,1,1,3,2,1,1,1.2389
6,324,7,2,1,1,5,2,1,1,0.6648
6,325,7,2,2,2,6,2,1,2,0.9873
6,326,7,2,2,1,2,1,0,1,1.5328
6,327,7,2,2,1,4,2,0,2,0.8052
6,328,7,2,2,2,5,1,1,2,0.7187
6,329,7,2,1,1,2,2,1,1,1.0346
6,330,7,2,2,1,5,1,0,2,0.6775
6,331,7,2,2,1,3,2,0,2,0.7323
6,332,7,2,2,1,4,1,0,2,0.7922
6,333,7,2,1,2,6,1,0,1,0.7815
6,334,7,2,1,2,4,1,0,1,0.9628
6,335,7,2,2,1,1,1,0,2,1.2288
6,336,7,2,1,2,2,1,0,1,1.731
6,337,8,1,2,1,2,2,0,2,0.8423
6,338,8,1,2,1,4,2,0,2,0.6735
6,339,8,1,1,2,6,1,0,1,0.6642
6,340,8,1,1,2,5,2,0,1,0.6027
6,341,8,1,1,2,1,2,0,1,0.6001
6,342,8,1,2,2,6,1,1,2,0.7254
6,343,8,1,1,2,3,2,0,1,0.7096
6,344,8,1,2,1,1,1,0,2,0.8452
6,345,8,1,1,2,1,1,0,1,0.6477
6,346,8,1,2,1,4,1,0,2,0.7768
6,347,8,1,2,2,1,1,1,2,1.2546
6,348,8,1,1,2,5,1,0,1,0.6217
6,349,8,1,2,2,2,1,1,2,0.8633
6,350,8,1,1,2,2,1,0,1,0.654
6,351,8,1,2,2,3,1,1,2,0.7205
6,352,8,1,1,1,4,1,1,1,0.8966
6,353,8,1,2,2,5,2,1,2,0.7161
6,354,8,1,1,2,4,2,0,1,0.9562
6,355,8,1,2,2,4,2,1,2,0.6646
6,356,8,1,2,2,2,2,1,2,0.6671
6,357,8,1,1,1,3,1,1,1,0.6056
6,358,8,1,1,2,3,1,0,1,0.7191
6,359,8,1,2,1,5,2,0,2,0.6393
6,360,8,1,2,2,3,2,1,2,0.7815
6,361,8,1,1,1,5,2,1,1,0.7069
6,362,8,1,2,1,3,2,0,2,0.7432
6,363,8,1,1,1,6,1,1,1,0.8554
6,364,8,1,2,2,5,1,1,2,0.7336
6,365,8,1,1,2,4,1,0,1,0.6016
6,366,8,1,1,1,6,2,1,1,0.668
6,367,8,1,2,1,1,2,0,2,0.5948
6,368,8,1,1,1,3,2,1,1,0.7083
6,369,8,1,1,1,5,1,1,1,0.7852
6,370,8,1,2,2,6,2,1,2,0.6112
6,371,8,1,2,1,6,1,0,2,0.8175
6,372,8,1,1,1,1,2,1,1,0.539
6,373,8,1,1,2,2,2,0,1,0.607
6,374,8,1,1,2,6,2,0,1,0.5285
6,375,8,1,1,1,2,2,1,1,0.5611
6,376,8,1,1,1,4,2,1,1,0.518
6,377,8,1,2,1,3,1,0,2,0.5219
6,378,8,1,2,1,6,2,0,2,0.618
6,379,8,1,2,2,4,1,1,2,0.4926
6,380,8,1,1,1,1,1,1,1,0.9275
6,381,8,1,2,2,1,2,1,2,0.7992
6,382,8,1,1,1,2,1,1,1,0.573
6,383,8,1,2,1,5,1,0,2,0.7741
6,384,8,1,2,1,2,1,0,2,0.7869
7,1,1,1,1,2,2,1,0,1,0.7557
7,2,1,1,2,2,4,1,1,2,0.5097
7,3,1,1,1,1,1,2,1,1,0.4092
7,4,1,1,2,2,4,2,1,2,0.4786
7,5,1,1,2,1,6,1,0,1,0.4133
7,6,1,1,1,2,5,1,0,2,0.7629
7,7,1,1,2,1,5,2,0,2,0.5153
7,8,1,1,2,1,6,2,0,2,0.6068
7,9,1,1,1,1,4,2,1,1,0.5283
7,10,1,1,1,2,2,2,0,2,0.6485
7,11,1,1,2,2,2,2,1,2,0.879
7,12,1,1,2,2,1,1,1,2,0.594
7,13,1,1,2,1,3,1,0,2,0.6553
7,14,1,1,1,2,1,2,0,1,0.646
7,15,1,1,1,1,3,2,1,1,0.6603
7,16,1,1,2,2,1,2,1,2,0.5348
7,17,1,1,2,1,1,2,0,1,0.527
7,18,1,1,1,2,5,2,0,1,0.7707
7,19,1,1,1,1,3,1,1,1,0.6033
7,20,1,1,1,1,5,1,1,1,0.4609
7,21,1,1,1,2,3,2,0,1,0.5759
7,22,1,1,1,1,4,1,1,1,0.457
7,23,1,1,2,1,4,2,0,2,0.5432
7,24,1,1,2,2,5,2,1,2,0.4714
7,25,1,1,2,1,2,1,0,2,0.5864
7,26,1,1,1,2,6,2,0,1,0.5485
7,27,1,1,1,1,6,2,1,1,0.5288
7,28,1,1,2,1,2,2,0,2,0.585
7,29,1,1,2,1,5,1,0,2,0.5419
7,30,1,1,1,1,2,1,1,1,0.662
7,31,1,1,2,2,2,1,1,2,0.5888
7,32,1,1,1,1,2,2,1,1,0.5273
7,33,1,1,2,2,6,1,1,1,0.479
7,34,1,1,1,2,4,2,0,1,0.7697
7,35,1,1,2,2,3,2,1,2,0.7303
7,36,1,1,1,2,3,1,0,1,0.5865
7,37,1,1,2,1,4,1,0,2,0.6478
7,38,1,1,2,2,6,2,1,2,0.7025
7,39,1,1,1,1,6,1,1,1,0.5182
7,40,1,1,1,2,1,1,0,1,0.5223
7,41,1,1,2,1,1,1,0,2,0.5901
7,42,1,1,1,2,4,1,0,1,0.5117
7,43,1,1,2,2,5,1,1,2,0.5796
7,44,1,1,2,1,3,2,0,2,0.7925
7,45,1,1,1,1,5,2,1,1,0.4618
7,46,1,1,2,2,3,1,1,2,0.6525
7,47,1,1,1,1,1,1,1,1,0.527
7,48,1,1,1,2,6,1,0,1,0.659
7,49,2,2,2,1,2,2,0,2,1.0442
7,50,2,2,2,1,2,1,0,2,0.9902
7,51,2,2,2,1,4,1,0,2,0.6633
7,52,2,2,1,2,5,1,0,1,0.782
7,53,2,2,2,2,1,1,1,2,0.608
7,54,2,2,2,1,3,2,0,2,0.8496
7,55,2,2,1,1,3,2,1,1,0.6638
7,56,2,2,1,1,5,2,1,1,0.6024
7,57,2,2,2,1,4,2,0,2,0.5879
7,58,2,2,2,2,5,1,1,2,0.8582
7,59,2,2,1,2,1,1,0,2,0.9689
7,60,2,2,1,2,3,2,0,1,0.5736
7,61,2,2,1,1,5,1,1,2,0.7982
7,62,2,2,2,1,5,1,0,1,1.4635
7,63,2,2,2,2,4,1,1,2,0.6261
7,64,2,2,1,2,2,1,0,1,0.7279
7,65,2,2,2,2,5,2,1,2,0.6077
7,66,2,2,2,1,5,2,0,2,0.7852
7,67,2,2,2,2,1,2,1,2,0.6583
7,68,2,2,1,1,2,1,1,1,0.7652
7,69,2,2,2,2,6,2,1,1,0.5221
7,70,2,2,1,1,6,2,1,2,0.6378
7,71,2,2,1,1,4,2,1,2,0.5888
7,72,2,2,2,1,6,2,0,2,0.6104
7,73,2,2,2,2,2,1,1,2,0.8402
7,74,2,2,1,2,4,1,0,1,0.5904
7,75,2,2,1,2,4,2,0,1,0.448
7,76,2,2,2,2,3,2,1,2,0.6505
7,77,2,2,1,1,3,1,1,1,0.5368
7,78,2,2,2,1,1,1,0,2,0.7849
7,79,2,2,2,1,1,2,0,2,0.7978
7,80,2,2,1,1,2,2,1,2,0.7518
7,81,2,2,1,1,4,1,1,1,0.6726
7,82,2,2,1,2,1,2,0,1,0.5119
7,83,2,2,2,2,3,1,1,2,0.632
7,84,2,2,1,1,1,1,1,1,0.5418
7,85,2,2,1,2,6,2,0,1,0.5863
7,86,2,2,1,1,6,1,1,1,0.4791
7,87,2,2,2,2,6,1,1,2,0.5352
7,88,2,2,2,2,2,2,1,1,0.6436
7,89,2,2,1,2,2,2,0,1,0.8102
7,90,2,2,2,2,4,2,1,2,0.8164
7,91,2,2,1,1,1,2,1,1,0.5379
7,92,2,2,1,2,6,1,0,1,0.4661
7,93,2,2,1,2,5,2,0,1,0.6686
7,94,2,2,2,1,3,1,0,2,0.7756
7,95,2,2,1,2,3,1,0,1,0.6369
7,96,2,2,2,1,6,1,0,2,0.7152
7,97,3,2,2,1,5,1,0,2,0.7956
7,98,3,2,1,2,3,2,0,1,0.6687
7,99,3,2,1,2,6,1,0,2,0.7992
7,100,3,2,1,1,5,1,1,1,0.6325
7,101,3,2,2,1,1,1,0,2,0.7226
7,102,3,2,2,1,2,2,0,2,0.9745
7,103,3,2,2,2,1,2,1,2,0.7115
7,104,3,2,2,2,3,1,1,1,0.8354
7,105,3,2,2,2,4,2,1,1,0.7615
7,106,3,2,1,1,1,2,1,1,1.1392
7,107,3,2,1,2,2,2,0,1,0.7874
7,108,3,2,1,1,3,1,1,1,0.6369
7,109,3,2,2,1,3,2,0,2,0.7034
7,110,3,2,1,1,2,1,1,1,0.6588
7,111,3,2,1,2,1,1,0,1,0.5216
7,112,3,2,2,2,2,2,1,2,0.7345
7,113,3,2,2,2,3,2,1,2,0.5148
7,114,3,2,1,1,6,1,1,1,0.5423
7,115,3,2,1,2,5,2,0,1,0.5984
7,116,3,2,1,2,4,1,0,1,0.7525
7,117,3,2,2,2,5,2,1,2,0.6778
7,118,3,2,2,1,4,2,0,2,0.5928
7,119,3,2,1,2,2,1,0,1,1.0381
7,120,3,2,1,2,6,2,0,1,0.5243
7,121,3,2,2,1,4,1,0,2,0.604
7,122,3,2,2,1,1,2,0,2,0.9265
7,123,3,2,2,2,4,1,1,2,0.4782
7,124,3,2,1,1,5,2,1,1,0.5409
7,125,3,2,1,2,4,2,0,1,0.5971
7,126,3,2,1,1,4,1,1,1,0.5304
7,127,3,2,2,2,2,1,1,2,0.6506
7,128,3,2,1,1,4,2,1,1,0.5251
7,129,3,2,2,1,6,2,0,2,1.041
7,130,3,2,2,1,2,1,0,2,1.0561
7,131,3,2,1,2,5,1,0,1,0.7227
7,132,3,2,2,1,3,1,0,2,0.9223
7,133,3,2,1,2,1,2,0,1,0.666
7,134,3,2,2,2,1,1,1,2,0.6096
7,135,3,2,2,2,6,1,1,2,0.5599
7,136,3,2,2,2,6,2,1,2,0.8825
7,137,3,2,1,1,3,2,1,1,0.5098
7,138,3,2,2,2,5,1,1,2,0.758
7,139,3,2,1,1,6,2,1,1,0.5501
7,140,3,2,1,1,2,2,1,1,0.8741
7,141,3,2,1,2,3,1,0,1,0.5368
7,142,3,2,2,1,5,2,0,2,0.849
7,143,3,2,1,1,1,1,1,1,0.7206
7,144,3,2,2,1,6,1,0,2,0.5768
7,145,4,1,2,1,4,2,0,2,0.5608
7,146,4,1,2,1,1,2,0,1,0.5058
7,147,4,1,2,2,3,1,1,2,0.6333
7,148,4,1,1,1,3,1,1,1,0.5953
7,149,4,1,2,1,3,1,0,2,0.7965
7,150,4,1,2,2,2,2,1,2,0.6055
7,151,4,1,1,2,4,2,0,1,0.6838
7,152,4,1,2,2,6,1,1,7,7
7,153,4,1,1,2,1,1,0,1,0.7966
7,154,4,1,1,2,4,1,0,1,0.5587
7,155,4,1,1,2,3,1,0,2,0.539
7,156,4,1,1,1,1,2,1,1,0.899
7,157,4,1,2,1,2,1,0,2,0.6662
7,158,4,1,2,1,1,1,0,2,0.5407
7,159,4,1,1,2,2,1,0,1,0.5733
7,160,4,1,1,1,6,1,1,2,0.7222
7,161,4,1,2,1,4,1,0,2,0.7541
7,162,4,1,2,2,4,1,1,2,0.4992
7,163,4,1,2,2,4,2,1,2,0.5384
7,164,4,1,2,2,5,2,1,2,0.4783
7,165,4,1,2,2,6,2,1,2,0.4771
7,166,4,1,1,2,3,2,0,2,0.7959
7,167,4,1,1,2,2,2,0,1,0.8734
7,168,4,1,2,2,1,2,1,2,0.5766
7,169,4,1,2,2,2,1,1,2,0.5217
7,170,4,1,1,1,4,2,1,1,0.7228
7,171,4,1,1,1,4,1,1,1,0.6025
7,172,4,1,2,1,6,2,0,2,0.5358
7,173,4,1,1,1,1,1,1,1,0.4758
7,174,4,1,1,1,2,1,1,1,0.4745
7,175,4,1,2,1,3,2,0,2,0.5137
7,176,4,1,1,1,6,2,1,1,0.5934
7,177,4,1,1,2,6,1,0,1,0.7188
7,178,4,1,2,1,5,2,0,2,0.5514
7,179,4,1,1,1,2,2,1,1,0.5435
7,180,4,1,1,2,6,2,0,2,0.524
7,181,4,1,1,2,1,2,0,1,0.7559
7,182,4,1,1,2,5,1,0,1,0.6003
7,183,4,1,1,1,5,2,1,1,0.4748
7,184,4,1,2,1,5,1,0,2,0.578
7,185,4,1,1,1,5,1,1,1,0.5231
7,186,4,1,1,2,5,2,0,1,0.6197
7,187,4,1,2,2,5,1,1,2,0.6053
7,188,4,1,2,2,3,2,1,2,0.5386
7,189,4,1,1,1,3,2,1,1,0.5477
7,190,4,1,2,1,2,2,0,2,0.5399
7,191,4,1,2,2,1,1,1,2,0.5085
7,192,4,1,2,1,6,1,0,2,0.7046
7,193,5,2,2,2,1,1,1,2,1.007
7,194,5,2,2,1,1,2,0,2,0.5691
7,195,5,2,1,1,4,2,1,1,0.7296
7,196,5,2,2,2,6,1,1,2,0.5975
7,197,5,2,1,2,3,1,0,1,0.7986
7,198,5,2,2,2,5,1,1,2,0.6077
7,199,5,2,1,2,6,2,0,1,0.7669
7,200,5,2,2,1,5,1,0,2,0.6518
7,201,5,2,2,1,4,2,0,2,0.8463
7,202,5,2,1,1,3,2,1,1,0.6017
7,203,5,2,1,2,1,2,0,1,0.535
7,204,5,2,1,2,2,1,0,1,0.6669
7,205,5,2,1,1,1,2,1,1,0.6054
7,206,5,2,1,2,4,2,0,1,0.5389
7,207,5,2,1,1,6,1,1,1,0.4669
7,208,5,2,1,2,5,1,0,1,0.4539
7,209,5,2,2,1,4,1,0,2,0.5807
7,210,5,2,1,2,3,2,0,1,0.6825
7,211,5,2,2,1,3,1,0,2,0.7255
7,212,5,2,2,1,1,1,0,2,0.6051
7,213,5,2,1,1,2,2,1,1,0.6664
7,214,5,2,1,1,5,2,1,1,0.733
7,215,5,2,2,1,2,1,0,1,0.9091
7,216,5,2,2,2,2,1,1,2,0.997
7,217,5,2,2,2,3,2,1,2,0.559
7,218,5,2,1,2,2,2,0,1,0.5917
7,219,5,2,2,2,5,2,1,2,0.7927
7,220,5,2,1,2,4,1,0,1,0.8225
7,221,5,2,2,1,6,2,0,2,0.7361
7,222,5,2,1,1,5,1,1,1,0.604
7,223,5,2,2,1,3,2,0,2,0.6418
7,224,5,2,2,1,2,2,0,2,0.5972
7,225,5,2,1,1,2,1,1,1,0.5762
7,226,5,2,1,2,5,2,0,1,0.5095
7,227,5,2,2,1,6,1,0,2,0.5252
7,228,5,2,2,2,3,1,1,1,0.6049
7,229,5,2,2,2,2,2,1,2,0.8942
7,230,5,2,2,2,1,2,1,2,0.4695
7,231,5,2,2,2,4,2,1,2,0.5727
7,232,5,2,1,2,1,1,0,1,0.4537
7,233,5,2,2,2,4,1,1,2,0.5283
7,234,5,2,1,1,1,1,1,1,0.7412
7,235,5,2,1,1,3,1,1,2,0.5333
7,236,5,2,1,1,6,2,1,1,0.5732
7,237,5,2,2,2,6,2,1,2,0.6059
7,238,5,2,1,1,4,1,1,2,0.6672
7,239,5,2,1,2,6,1,0,1,0.4902
7,240,5,2,2,1,5,2,0,1,0.4537
7,241,6,1,1,2,3,2,0,1,0.6657
7,242,6,1,1,1,4,2,1,1,0.7204
7,243,6,1,1,2,1,1,0,1,0.7973
7,244,6,1,1,2,3,1,0,1,0.5423
7,245,6,1,1,1,2,1,1,1,0.4707
7,246,6,1,2,2,6,2,1,2,0.5215
7,247,6,1,1,2,2,1,0,1,0.6417
7,248,6,1,1,2,4,2,0,1,0.5162
7,249,6,1,2,1,2,2,0,2,0.5958
7,250,6,1,1,2,5,2,0,2,0.5814
7,251,6,1,1,2,5,1,0,1,0.6435
7,252,6,1,2,1,1,1,0,1,0.4774
7,253,6,1,2,1,3,1,0,2,0.8323
7,254,6,1,1,1,3,1,1,1,0.5303
7,255,6,1,1,2,6,2,0,2,0.7144
7,256,6,1,1,1,2,2,1,1,0.6824
7,257,6,1,2,2,1,1,1,2,0.7136
7,258,6,1,2,1,5,1,0,2,1.0413
7,259,6,1,2,1,5,2,0,2,0.4922
7,260,6,1,2,2,4,1,1,2,0.5079
7,261,6,1,2,1,6,1,0,2,0.5353
7,262,6,1,1,1,5,2,1,1,0.4753
7,263,6,1,1,1,1,2,1,1,0.6661
7,264,6,1,2,1,3,2,0,2,0.517
7,265,6,1,2,2,3,1,1,2,0.6371
7,266,6,1,2,2,2,1,1,2,0.5117
7,267,6,1,1,1,1,1,1,1,0.5848
7,268,6,1,1,2,6,1,0,1,0.4776
7,269,6,1,2,1,4,1,0,2,0.5404
7,270,6,1,2,1,2,1,0,2,0.9165
7,271,6,1,2,1,1,2,0,2,0.5962
7,272,6,1,1,1,4,1,1,1,0.5178
7,273,6,1,2,2,1,2,1,2,0.5099
7,274,6,1,1,1,3,2,1,1,0.514
7,275,6,1,2,1,6,2,0,2,0.5752
7,276,6,1,2,2,5,1,1,2,0.5321
7,277,6,1,1,1,6,1,1,1,0.536
7,278,6,1,1,2,2,2,0,1,0.7319
7,279,6,1,2,2,5,2,1,2,0.5241
7,280,6,1,2,2,2,2,1,2,0.5162
7,281,6,1,2,1,4,2,0,2,0.5842
7,282,6,1,2,2,4,2,1,2,0.5293
7,283,6,1,1,2,1,2,0,1,0.4796
7,284,6,1,2,2,3,2,1,2,0.4783
7,285,6,1,2,2,6,1,1,2,0.541
7,286,6,1,1,1,6,2,1,1,0.5332
7,287,6,1,1,2,4,1,0,1,0.5371
7,288,6,1,1,1,5,1,1,1,0.5175
7,289,7,1,2,2,5,1,1,2,0.8408
7,290,7,1,2,1,2,1,0,2,0.6603
7,291,7,1,1,1,4,2,1,1,0.5112
7,292,7,1,1,2,4,2,0,1,0.4746
7,293,7,1,1,1,4,1,1,1,0.5374
7,294,7,1,1,2,1,1,0,1,0.4773
7,295,7,1,2,2,4,2,1,2,0.4525
7,296,7,1,2,2,6,2,1,2,0.5153
7,297,7,1,1,1,1,2,1,1,0.403
7,298,7,1,2,1,1,2,0,1,0.39
7,299,7,1,2,2,2,2,1,2,0.6403
7,300,7,1,2,2,5,2,1,2,0.4744
7,301,7,1,2,1,4,1,0,2,0.6533
7,302,7,1,2,1,5,1,0,2,0.4925
7,303,7,1,2,1,4,2,0,2,0.52
7,304,7,1,1,1,6,2,1,1,0.5239
7,305,7,1,2,2,3,2,1,2,0.6558
7,306,7,1,1,1,5,2,1,1,0.7511
7,307,7,1,1,2,4,1,0,1,0.8515
7,308,7,1,2,1,2,2,0,2,0.6017
7,309,7,1,2,1,6,2,0,2,0.535
7,310,7,1,1,2,6,2,0,1,1.1789
7,311,7,1,2,1,3,2,0,2,0.6571
7,312,7,1,2,2,1,2,1,2,0.7877
7,313,7,1,1,2,3,1,0,1,0.5732
7,314,7,1,2,2,1,1,1,2,0.5588
7,315,7,1,2,1,6,1,0,2,0.5392
7,316,7,1,1,2,3,2,0,2,0.4791
7,317,7,1,1,1,3,2,1,1,0.6941
7,318,7,1,1,1,3,1,1,1,0.9813
7,319,7,1,1,1,2,2,1,1,0.5315
7,320,7,1,2,1,3,1,0,2,0.5759
7,321,7,1,2,2,2,1,1,2,0.6947
7,322,7,1,1,2,2,1,0,1,0.5913
7,323,7,1,2,1,5,2,0,1,0.6644
7,324,7,1,1,2,5,2,0,1,0.5749
7,325,7,1,1,1,5,1,1,1,0.7356
7,326,7,1,1,1,1,1,1,1,0.5277
7,327,7,1,2,2,4,1,1,2,0.5081
7,328,7,1,1,1,2,1,1,1,0.576
7,329,7,1,1,2,5,1,0,1,0.794
7,330,7,1,1,2,1,2,0,1,0.8643
7,331,7,1,2,1,1,1,0,2,0.7308
7,332,7,1,1,2,6,1,0,1,0.7907
7,333,7,1,2,2,3,1,1,1,0.588
7,334,7,1,1,1,6,1,1,1,0.7376
7,335,7,1,1,2,2,2,0,2,0.5179
7,336,7,1,2,2,6,1,1,2,0.8662
7,337,8,2,2,1,5,2,0,2,1.2063
7,338,8,2,1,2,2,2,0,1,1.0515
7,339,8,2,2,2,4,1,1,2,0.7298
7,340,8,2,2,1,3,1,0,2,0.8537
7,341,8,2,2,1,6,2,0,1,0.8872
7,342,8,2,1,1,5,2,1,1,0.5506
7,343,8,2,1,2,5,2,0,1,0.531
7,344,8,2,2,1,2,1,0,2,0.7153
7,345,8,2,1,2,5,1,0,1,0.6405
7,346,8,2,2,1,3,2,0,2,0.6025
7,347,8,2,1,2,6,1,0,1,0.7448
7,348,8,2,1,1,1,1,1,1,0.537
7,349,8,2,2,2,1,2,1,2,0.5409
7,350,8,2,1,1,6,1,1,1,0.5735
7,351,8,2,2,2,2,1,1,2,0.5186
7,352,8,2,2,1,2,2,0,1,0.772
7,353,8,2,1,2,4,1,0,1,0.8142
7,354,8,2,2,2,3,1,1,2,0.7278
7,355,8,2,2,1,5,1,0,2,0.7877
7,356,8,2,1,2,6,2,0,1,0.5968
7,357,8,2,2,1,1,2,0,2,0.7339
7,358,8,2,2,2,2,2,1,2,0.7702
7,359,8,2,1,1,5,1,1,1,0.6955
7,360,8,2,2,1,4,2,0,2,0.5752
7,361,8,2,2,2,5,1,1,2,0.549
7,362,8,2,1,1,4,1,1,1,0.9134
7,363,8,2,2,2,5,2,1,2,0.7329
7,364,8,2,1,2,1,1,0,1,0.4728
7,365,8,2,1,1,2,1,1,1,0.5355
7,366,8,2,1,1,3,1,1,2,1.0279
7,367,8,2,1,1,2,2,1,1,0.6142
7,368,8,2,1,1,4,2,1,1,0.5161
7,369,8,2,1,1,3,2,1,1,0.5316
7,370,8,2,2,1,6,1,0,2,0.5995
7,371,8,2,2,2,6,1,1,2,0.4741
7,372,8,2,2,2,1,1,1,2,0.5368
7,373,8,2,1,1,1,2,1,1,0.529
7,374,8,2,1,2,2,1,0,1,0.4858
7,375,8,2,1,2,1,2,0,1,0.4493
7,376,8,2,2,2,6,2,1,2,0.5878
7,377,8,2,2,1,1,1,0,1,0.7419
7,378,8,2,2,1,4,1,0,1,0.9667
7,379,8,2,1,2,3,2,0,1,0.8273
7,380,8,2,1,2,3,1,0,1,0.5253
7,381,8,2,2,2,3,2,1,2,0.5059
7,382,8,2,1,1,6,2,1,1,0.4626
7,383,8,2,2,2,4,2,1,2,0.554
7,384,8,2,1,2,4,2,0,1,0.5396
8,1,1,2,2,2,4,2,1,2,0.6854
8,2,1,2,2,1,2,2,0,2,0.9057
8,3,1,2,1,2,3,1,0,1,0.7251
8,4,1,2,2,1,5,2,0,2,0.6688
8,5,1,2,2,1,2,1,0,2,0.8633
8,6,1,2,1,2,6,2,0,1,0.6188
8,7,1,2,2,2,6,2,1,2,0.5808
8,8,1,2,2,2,3,2,1,2,0.7819
8,9,1,2,2,1,4,2,0,2,1.0507
8,10,1,2,1,2,2,1,0,1,0.537
8,11,1,2,2,1,4,1,0,2,0.9771
8,12,1,2,1,1,6,1,1,1,0.6671
8,13,1,2,1,2,5,1,0,1,0.5416
8,14,1,2,2,2,5,1,1,2,0.586
8,15,1,2,1,1,5,1,1,1,0.8629
8,16,1,2,1,1,2,2,1,1,0.6653
8,17,1,2,2,2,5,2,1,2,0.4876
8,18,1,2,2,2,1,1,1,2,1.2831
8,19,1,2,1,1,4,2,1,1,0.598
8,20,1,2,2,1,3,2,0,2,0.9793
8,21,1,2,2,1,6,1,0,1,1.0364
8,22,1,2,1,2,4,2,0,1,0.7506
8,23,1,2,2,2,3,1,1,2,0.8627
8,24,1,2,2,1,1,2,0,1,1.1537
8,25,1,2,1,2,4,1,0,1,0.7503
8,26,1,2,1,1,1,1,1,1,1.1184
8,27,1,2,1,1,6,2,1,1,0.5341
8,28,1,2,2,1,1,1,0,1,1.0382
8,29,1,2,1,2,6,1,0,1,0.6245
8,30,1,2,2,2,4,1,1,2,0.9065
8,31,1,2,1,2,5,2,0,1,0.6384
8,32,1,2,2,1,5,1,0,2,0.5769
8,33,1,2,2,2,2,2,1,2,1.034
8,34,1,2,1,1,5,2,1,1,0.596
8,35,1,2,1,1,1,2,1,2,0.814
8,36,1,2,2,1,3,1,0,2,0.9438
8,37,1,2,1,1,2,1,1,1,0.5999
8,38,1,2,1,2,1,1,0,2,0.7944
8,39,1,2,1,2,3,2,0,1,0.936
8,40,1,2,2,1,6,2,0,2,0.6561
8,41,1,2,1,1,3,1,1,1,0.8624
8,42,1,2,2,2,1,2,1,2,0.7694
8,43,1,2,2,2,6,1,1,2,1.2942
8,44,1,2,1,1,3,2,1,1,0.5738
8,45,1,2,2,2,2,1,1,2,0.8507
8,46,1,2,1,2,2,2,0,1,0.7694
8,47,1,2,1,2,1,2,0,2,1.1022
8,48,1,2,1,1,4,1,1,1,0.5658
8,49,2,1,1,2,5,1,0,1,0.6063
8,50,2,1,2,2,6,2,1,2,0.6036
8,51,2,1,1,2,2,1,0,2,0.5892
8,52,2,1,2,1,1,2,0,2,0.8668
8,53,2,1,2,1,3,2,0,2,0.7097
8,54,2,1,2,1,2,1,0,2,0.6416
8,55,2,1,1,2,3,2,0,1,0.5279
8,56,2,1,1,2,4,1,0,1,0.5958
8,57,2,1,1,2,6,1,0,1,0.9889
8,58,2,1,2,2,1,2,1,2,0.534
8,59,2,1,2,1,4,2,0,2,0.6542
8,60,2,1,2,1,6,1,0,2,1.0289
8,61,2,1,1,1,1,2,1,1,0.6431
8,62,2,1,2,1,3,1,0,2,0.7096
8,63,2,1,1,2,1,1,0,1,0.5371
8,64,2,1,1,1,1,1,1,1,0.7852
8,65,2,1,2,2,4,2,1,2,0.6701
8,66,2,1,1,2,5,2,0,1,0.7131
8,67,2,1,2,2,4,1,1,2,0.645
8,68,2,1,2,2,2,1,1,2,0.5835
8,69,2,1,2,2,5,1,1,2,0.5808
8,70,2,1,2,1,1,1,0,2,0.6017
8,71,2,1,1,1,2,2,1,1,0.5232
8,72,2,1,2,1,4,1,0,2,0.6552
8,73,2,1,2,1,6,2,0,2,0.6694
8,74,2,1,1,1,6,2,1,1,0.5307
8,75,2,1,2,1,5,1,0,2,0.5751
8,76,2,1,2,1,5,2,0,2,0.5842
8,77,2,1,1,1,4,2,1,1,0.5293
8,78,2,1,1,1,2,1,1,1,0.7135
8,79,2,1,2,2,3,1,1,2,0.6049
8,80,2,1,1,2,4,2,0,1,0.6545
8,81,2,1,1,1,3,1,1,1,0.721
8,82,2,1,1,2,6,2,0,1,0.7052
8,83,2,1,1,1,6,1,1,1,1.085
8,84,2,1,2,1,2,2,0,2,0.6405
8,85,2,1,2,2,2,2,1,2,0.5267
8,86,2,1,2,2,3,2,1,2,0.4784
8,87,2,1,2,2,1,1,1,2,0.4772
8,88,2,1,1,2,1,2,0,1,0.5399
8,89,2,1,2,2,5,2,1,2,0.5373
8,90,2,1,1,1,4,1,1,1,0.5177
8,91,2,1,1,1,3,2,1,1,0.5738
8,92,2,1,2,2,6,1,1,2,0.5425
8,93,2,1,1,2,2,2,0,1,0.5346
8,94,2,1,1,2,3,1,0,1,0.5268
8,95,2,1,1,1,5,2,1,1,0.5307
8,96,2,1,1,1,5,1,1,1,0.4758
8,97,3,1,1,2,3,1,0,1,0.6063
8,98,3,1,2,1,3,1,0,2,0.6088
8,99,3,1,2,1,4,2,0,7,7
8,100,3,1,1,1,3,2,1,1,0.6356
8,101,3,1,1,2,1,2,0,1,0.5624
8,102,3,1,1,2,1,1,0,1,0.5428
8,103,3,1,1,2,2,1,0,1,0.5231
8,104,3,1,1,1,4,1,1,1,0.7713
8,105,3,1,1,2,5,2,0,1,0.5281
8,106,3,1,1,2,2,2,0,1,0.4563
8,107,3,1,1,1,2,2,1,1,0.4315
8,108,3,1,1,2,4,1,0,1,0.5936
8,109,3,1,2,1,4,1,0,2,0.5909
8,110,3,1,2,2,2,2,1,2,0.5883
8,111,3,1,1,1,6,2,1,1,0.5268
8,112,3,1,1,2,6,2,0,1,0.6587
8,113,3,1,2,1,3,2,0,1,0.5736
8,114,3,1,1,1,3,1,1,1,0.6188
8,115,3,1,2,2,5,2,1,2,0.5404
8,116,3,1,2,2,5,1,1,2,0.5325
8,117,3,1,2,2,4,2,1,2,0.5887
8,118,3,1,1,1,5,2,1,1,0.5456
8,119,3,1,1,1,1,1,1,1,0.5259
8,120,3,1,1,1,2,1,1,1,0.6056
8,121,3,1,1,2,5,1,0,2,0.603
8,122,3,1,2,1,5,2,0,2,0.6128
8,123,3,1,1,1,4,2,1,1,0.5513
8,124,3,1,2,2,6,1,1,2,0.7119
8,125,3,1,2,2,1,1,1,2,0.6439
8,126,3,1,1,2,3,2,0,1,0.564
8,127,3,1,2,1,1,1,0,2,0.7128
8,128,3,1,1,1,1,2,1,1,0.9125
8,129,3,1,2,2,6,2,1,2,0.5281
8,130,3,1,2,1,5,1,0,2,0.6013
8,131,3,1,2,1,2,2,0,2,0.7031
8,132,3,1,1,1,6,1,1,2,0.9785
8,133,3,1,1,1,5,1,1,1,0.8325
8,134,3,1,1,2,4,2,0,1,0.6703
8,135,3,1,2,1,2,1,0,2,0.6611
8,136,3,1,1,2,6,1,0,1,1.0358
8,137,3,1,2,2,1,2,1,2,0.6617
8,138,3,1,2,2,4,1,1,2,0.5348
8,139,3,1,2,1,6,2,0,2,0.5793
8,140,3,1,2,2,3,1,1,2,0.6053
8,141,3,1,2,1,1,2,0,2,0.5791
8,142,3,1,2,2,3,2,1,2,0.536
8,143,3,1,2,2,2,1,1,2,0.5399
8,144,3,1,2,1,6,1,0,2,0.7762
8,145,4,2,1,2,2,2,0,1,0.7421
8,146,4,2,1,1,1,2,1,1,1.0396
8,147,4,2,2,1,3,1,0,1,0.8459
8,148,4,2,2,1,1,1,0,2,1.0331
8,149,4,2,1,2,3,2,0,1,0.6238
8,150,4,2,1,2,6,2,0,1,0.7256
8,151,4,2,2,2,5,1,1,2,0.6692
8,152,4,2,1,1,4,1,1,1,0.66
8,153,4,2,2,1,3,2,0,2,0.7029
8,154,4,2,2,1,2,1,0,1,0.9313
8,155,4,2,2,2,1,2,1,2,0.8795
8,156,4,2,2,2,2,1,1,2,0.8151
8,157,4,2,2,1,5,1,0,2,0.7286
8,158,4,2,2,1,6,1,0,2,0.5966
8,159,4,2,1,2,5,2,0,1,0.5417
8,160,4,2,1,1,3,2,1,2,0.731
8,161,4,2,2,2,3,1,1,2,0.6114
8,162,4,2,1,2,1,2,0,1,0.8294
8,163,4,2,1,1,2,1,1,1,0.6555
8,164,4,2,1,1,6,2,1,1,0.5351
8,165,4,2,2,1,2,2,0,2,0.923
8,166,4,2,2,2,6,2,1,2,0.7307
8,167,4,2,1,2,5,1,0,1,0.5346
8,168,4,2,1,2,2,1,0,1,0.6665
8,169,4,2,2,2,3,2,1,2,0.8427
8,170,4,2,2,2,2,2,1,2,0.7209
8,171,4,2,2,2,4,2,1,2,1.2105
8,172,4,2,1,2,1,1,0,1,0.9447
8,173,4,2,2,1,1,2,0,2,0.6648
8,174,4,2,1,1,4,2,1,1,0.6033
8,175,4,2,2,2,6,1,1,1,1.0486
8,176,4,2,1,1,3,1,1,1,0.6349
8,177,4,2,1,2,4,1,0,1,0.5734
8,178,4,2,2,1,6,2,0,2,0.6582
8,179,4,2,2,1,4,1,0,2,0.905
8,180,4,2,2,2,1,1,1,2,1.0731
8,181,4,2,2,1,4,2,0,2,1.1118
8,182,4,2,1,2,4,2,0,1,0.7953
8,183,4,2,2,2,5,2,1,2,0.9243
8,184,4,2,1,1,2,2,1,1,0.7959
8,185,4,2,1,1,1,1,1,2,0.7617
8,186,4,2,1,1,5,2,1,1,0.531
8,187,4,2,1,1,6,1,1,1,0.6851
8,188,4,2,2,1,5,2,0,2,0.617
8,189,4,2,1,2,3,1,0,2,1.1145
8,190,4,2,1,2,6,1,0,1,0.706
8,191,4,2,2,2,4,1,1,2,0.6614
8,192,4,2,1,1,5,1,1,1,0.5764
8,193,5,1,1,2,4,2,0,1,0.7734
8,194,5,1,2,2,1,1,1,2,0.5876
8,195,5,1,1,2,3,2,0,1,0.521
8,196,5,1,1,1,6,2,1,1,0.8501
8,197,5,1,1,2,2,1,0,1,0.6172
8,198,5,1,2,2,2,2,1,2,0.6028
8,199,5,1,1,1,1,2,1,1,0.6524
8,200,5,1,2,1,2,2,0,2,0.5673
8,201,5,1,1,1,4,1,1,1,0.6404
8,202,5,1,1,2,1,1,0,1,0.771
8,203,5,1,1,2,6,2,0,1,0.6558
8,204,5,1,2,1,1,2,0,2,0.6113
8,205,5,1,1,2,2,2,0,1,0.5968
8,206,5,1,2,1,6,2,0,2,0.4779
8,207,5,1,1,2,5,1,0,1,0.6334
8,208,5,1,2,1,4,1,0,2,0.6476
8,209,5,1,2,2,5,1,1,2,0.5104
8,210,5,1,2,1,5,1,0,2,0.5261
8,211,5,1,2,1,2,1,0,2,0.786
8,212,5,1,1,2,5,2,0,1,0.6003
8,213,5,1,1,1,3,2,1,1,0.5336
8,214,5,1,1,2,3,1,0,1,0.5375
8,215,5,1,2,1,3,1,0,2,0.5937
8,216,5,1,1,1,6,1,1,1,0.8522
8,217,5,1,2,2,5,2,1,2,0.4509
8,218,5,1,1,1,1,1,1,1,0.6417
8,219,5,1,2,2,3,2,1,2,0.464
8,220,5,1,1,1,2,2,1,1,0.4914
8,221,5,1,1,1,5,1,1,1,0.9904
8,222,5,1,2,1,3,2,0,2,0.5354
8,223,5,1,2,1,5,2,0,2,0.4754
8,224,5,1,1,1,4,2,1,1,0.5381
8,225,5,1,2,2,4,2,1,2,0.4545
8,226,5,1,2,1,4,2,0,2,0.5629
8,227,5,1,2,1,1,1,0,2,0.9155
8,228,5,1,2,2,2,1,1,2,0.6121
8,229,5,1,2,2,6,2,1,2,0.5977
8,230,5,1,2,2,6,1,1,2,0.5428
8,231,5,1,2,1,6,1,0,2,0.6512
8,232,5,1,1,2,4,1,0,1,0.5257
8,233,5,1,1,2,1,2,0,1,0.7739
8,234,5,1,1,2,6,1,0,1,1.0361
8,235,5,1,1,1,5,2,1,1,0.5223
8,236,5,1,2,2,1,2,1,2,1.0486
8,237,5,1,2,2,3,1,1,2,0.4709
8,238,5,1,1,1,2,1,1,1,0.4696
8,239,5,1,2,2,4,1,1,2,0.5206
8,240,5,1,1,1,3,1,1,1,0.5128
8,241,6,2,2,1,3,2,0,2,1.0952
8,242,6,2,1,2,6,1,0,1,1.0751
8,243,6,2,2,2,2,2,1,2,0.7989
8,244,6,2,1,1,1,1,1,1,0.6367
8,245,6,2,1,2,3,1,0,1,0.587
8,246,6,2,2,1,2,2,0,2,0.8521
8,247,6,2,1,1,4,1,1,1,0.6023
8,248,6,2,1,2,2,2,0,1,0.5761
8,249,6,2,2,1,4,2,0,2,0.6374
8,250,6,2,1,1,3,2,1,1,0.576
8,251,6,2,1,1,1,2,1,2,0.6778
8,252,6,2,1,2,4,2,0,1,0.5177
8,253,6,2,1,1,4,2,1,1,0.4054
8,254,6,2,2,2,5,1,1,2,0.6668
8,255,6,2,1,1,5,1,1,2,0.5412
8,256,6,2,2,2,4,1,1,2,0.8137
8,257,6,2,2,1,4,1,0,2,0.8957
8,258,6,2,2,1,3,1,0,2,1.2154
8,259,6,2,1,1,2,2,1,1,0.7171
8,260,6,2,2,2,1,1,1,2,0.6541
8,261,6,2,1,1,6,1,1,1,0.6684
8,262,6,2,1,1,2,1,1,1,0.5429
8,263,6,2,1,2,5,2,0,1,0.8433
8,264,6,2,2,2,1,2,1,2,0.9018
8,265,6,2,2,1,1,2,0,1,1.0294
8,266,6,2,2,1,1,1,0,2,0.9997
8,267,6,2,1,2,4,1,0,1,0.6022
8,268,6,2,2,2,6,2,1,2,0.6517
8,269,6,2,2,2,4,2,1,2,0.922
8,270,6,2,2,2,6,1,1,2,0.7296
8,271,6,2,2,2,3,1,1,2,0.5858
8,272,6,2,1,2,1,2,0,2,1.3393
8,273,6,2,1,2,5,1,0,1,0.5557
8,274,6,2,2,2,2,1,1,2,1.0245
8,275,6,2,2,1,5,2,0,2,0.627
8,276,6,2,1,1,5,2,1,1,0.5302
8,277,6,2,1,1,3,1,1,1,0.7261
8,278,6,2,2,1,2,1,0,2,1.1178
8,279,6,2,1,2,2,1,0,1,0.6615
8,280,6,2,1,2,3,2,0,1,0.5764
8,281,6,2,2,1,6,2,0,1,1.2307
8,282,6,2,2,2,5,2,1,2,0.6809
8,283,6,2,2,2,3,2,1,2,0.9446
8,284,6,2,1,2,6,2,0,1,0.5772
8,285,6,2,2,1,6,1,0,2,0.662
8,286,6,2,1,1,6,2,1,1,0.6528
8,287,6,2,1,2,1,1,0,1,1.115
8,288,6,2,2,1,5,1,0,2,0.6351
8,289,7,2,1,1,1,2,1,1,0.9209
8,290,7,2,2,1,6,1,0,2,0.5131
8,291,7,2,1,1,4,2,1,1,0.901
8,292,7,2,1,2,1,2,0,1,0.9764
8,293,7,2,1,2,2,2,0,1,0.5501
8,294,7,2,1,2,4,2,0,1,0.6585
8,295,7,2,2,1,5,2,0,2,0.7133
8,296,7,2,1,2,5,2,0,1,0.5695
8,297,7,2,2,2,2,1,1,2,1.0789
8,298,7,2,2,2,5,2,1,2,0.6982
8,299,7,2,1,1,3,1,1,1,0.5425
8,300,7,2,2,1,2,2,0,2,0.7267
8,301,7,2,1,1,4,1,1,1,0.6064
8,302,7,2,2,1,4,2,0,2,0.5919
8,303,7,2,2,1,5,1,0,2,0.6533
8,304,7,2,1,2,6,2,0,1,0.597
8,305,7,2,1,1,5,1,1,1,0.5067
8,306,7,2,2,2,2,2,1,2,0.5747
8,307,7,2,1,1,6,1,1,1,0.6242
8,308,7,2,1,2,5,1,0,1,0.726
8,309,7,2,2,2,3,2,1,2,0.6058
8,310,7,2,2,2,6,2,1,2,0.7833
8,311,7,2,1,2,4,1,0,1,1.3605
8,312,7,2,1,1,5,2,1,1,0.5171
8,313,7,2,2,1,3,1,0,2,0.7653
8,314,7,2,1,1,2,1,1,1,0.5744
8,315,7,2,1,1,1,1,1,1,0.624
8,316,7,2,1,2,1,1,0,1,0.5337
8,317,7,2,1,2,3,1,0,1,0.6017
8,318,7,2,2,2,1,2,1,2,0.6799
8,319,7,2,1,2,2,1,0,1,0.5309
8,320,7,2,2,1,2,1,0,2,0.8954
8,321,7,2,2,1,1,2,0,2,0.703
8,322,7,2,2,2,4,1,1,2,0.7108
8,323,7,2,2,2,5,1,1,2,0.5955
8,324,7,2,1,2,3,2,0,1,0.8607
8,325,7,2,1,2,6,1,0,1,0.7911
8,326,7,2,2,1,1,1,0,2,0.9202
8,327,7,2,2,2,3,1,1,2,0.6638
8,328,7,2,2,2,1,1,1,1,1.399
8,329,7,2,1,1,3,2,1,1,0.6087
8,330,7,2,2,2,4,2,1,2,0.6282
8,331,7,2,2,1,6,2,0,1,1.3465
8,332,7,2,2,2,6,1,1,2,0.7195
8,333,7,2,2,1,4,1,0,1,0.6801
8,334,7,2,2,1,3,2,0,2,1.0725
8,335,7,2,1,1,2,2,1,1,0.9192
8,336,7,2,1,1,6,2,1,1,0.86
8,337,8,1,2,1,4,2,0,2,0.6466
8,338,8,1,1,1,4,1,1,1,0.5851
8,339,8,1,1,1,2,1,1,1,0.7105
8,340,8,1,1,1,2,2,1,1,0.5261
8,341,8,1,2,2,1,2,1,2,0.5301
8,342,8,1,2,1,4,1,0,2,0.598
8,343,8,1,2,1,1,1,0,2,0.6071
8,344,8,1,2,1,1,2,0,2,0.6449
8,345,8,1,2,2,5,1,1,2,0.5716
8,346,8,1,1,2,2,2,0,1,0.5925
8,347,8,1,2,2,6,1,1,2,0.5428
8,348,8,1,1,1,6,1,1,1,1.283
8,349,8,1,1,2,3,1,0,1,0.7428
8,350,8,1,2,2,3,1,1,2,0.5115
8,351,8,1,1,2,5,2,0,1,0.9751
8,352,8,1,1,2,1,1,0,1,0.6482
8,353,8,1,2,2,2,2,1,2,0.5749
8,354,8,1,2,1,3,2,0,2,0.7864
8,355,8,1,2,2,3,2,1,2,0.5314
8,356,8,1,1,1,3,2,1,1,0.4596
8,357,8,1,2,1,6,2,0,2,0.5341
8,358,8,1,1,2,6,2,0,1,0.619
8,359,8,1,1,2,6,1,0,1,0.8893
8,360,8,1,2,2,1,1,1,2,0.5167
8,361,8,1,2,1,2,1,0,2,0.6369
8,362,8,1,1,1,3,1,1,1,0.5636
8,363,8,1,2,1,5,1,0,2,1.6202
8,364,8,1,1,1,5,2,1,1,0.7967
8,365,8,1,2,1,2,2,0,2,0.6067
8,366,8,1,1,1,1,2,1,1,0.6042
8,367,8,1,1,2,3,2,0,1,0.6941
8,368,8,1,1,2,2,1,0,1,0.6665
8,369,8,1,2,1,5,2,0,2,0.5815
8,370,8,1,1,2,5,1,0,1,0.5774
8,371,8,1,2,2,2,1,1,2,0.5916
8,372,8,1,1,1,6,2,1,1,0.6007
8,373,8,1,1,1,1,1,1,1,0.5863
8,374,8,1,2,2,6,2,1,2,0.5837
8,375,8,1,2,1,3,1,0,2,0.6266
8,376,8,1,2,1,6,1,0,2,0.9609
8,377,8,1,2,2,4,2,1,2,0.5935
8,378,8,1,1,1,5,1,1,1,0.6072
8,379,8,1,1,1,4,2,1,1,0.6687
8,380,8,1,1,2,4,1,0,1,0.479
8,381,8,1,1,2,1,2,0,1,0.7338
8,382,8,1,2,2,5,2,1,2,0.5259
8,383,8,1,1,2,4,2,0,1,0.6461
8,384,8,1,2,2,4,1,1,2,0.4971
9,1,1,1,1,1,2,1,1,1,0.6346
9,2,1,1,1,1,6,2,1,1,0.6893
9,3,1,1,2,1,3,1,0,1,0.4763
9,4,1,1,2,1,2,1,0,2,0.7031
9,5,1,1,2,2,3,1,1,2,0.6703
9,6,1,1,2,2,6,1,1,2,0.5331
9,7,1,1,1,2,4,2,0,1,0.9092
9,8,1,1,2,2,4,1,1,2,0.7286
9,9,1,1,2,2,1,2,1,2,0.5848
9,10,1,1,1,2,3,2,0,1,0.5939
9,11,1,1,2,2,5,2,1,2,0.5912
9,12,1,1,1,2,5,1,0,1,0.7165
9,13,1,1,1,2,6,2,0,1,0.7125
9,14,1,1,1,2,4,1,0,1,0.5921
9,15,1,1,2,1,5,1,0,2,0.5372
9,16,1,1,1,1,1,2,1,1,0.7619
9,17,1,1,1,1,2,2,1,1,0.5945
9,18,1,1,1,1,3,2,1,1,0.6036
9,19,1,1,1,2,1,2,0,1,0.6554
9,20,1,1,2,2,2,2,1,2,0.5351
9,21,1,1,2,2,4,2,1,2,0.6435
9,22,1,1,1,2,3,1,0,1,0.9138
9,23,1,1,2,1,1,2,0,2,0.6052
9,24,1,1,2,1,4,1,0,1,0.5908
9,25,1,1,2,2,3,2,1,2,0.6241
9,26,1,1,1,1,5,2,1,1,0.6789
9,27,1,1,2,1,6,1,0,2,0.7858
9,28,1,1,1,2,1,1,0,1,0.6707
9,29,1,1,1,1,5,1,1,1,0.5974
9,30,1,1,1,1,1,1,1,1,0.5947
9,31,1,1,2,1,6,2,0,2,0.7083
9,32,1,1,2,1,3,2,0,1,0.5762
9,33,1,1,1,2,2,2,0,1,0.6971
9,34,1,1,2,1,1,1,0,2,0.6643
9,35,1,1,1,1,4,2,1,1,0.591
9,36,1,1,1,1,6,1,1,1,0.5244
9,37,1,1,1,2,5,2,0,2,0.5806
9,38,1,1,2,2,6,2,1,2,0.6544
9,39,1,1,2,1,2,2,0,2,0.6046
9,40,1,1,2,1,5,2,0,2,0.602
9,41,1,1,1,1,3,1,1,1,0.9076
9,42,1,1,2,1,4,2,0,2,0.5755
9,43,1,1,2,2,1,1,1,2,0.5845
9,44,1,1,1,2,2,1,0,1,0.7216
9,45,1,1,2,2,5,1,1,2,0.5373
9,46,1,1,1,1,4,1,1,1,0.5412
9,47,1,1,2,2,2,1,1,2,0.5856
9,48,1,1,1,2,6,1,0,1,0.647
9,49,2,2,2,1,4,1,0,1,1.1103
9,50,2,2,1,1,4,2,1,1,0.7658
9,51,2,2,1,2,6,1,0,1,0.6623
9,52,2,2,2,2,1,2,1,2,0.8568
9,53,2,2,1,2,5,2,0,1,0.7233
9,54,2,2,1,2,4,2,0,1,0.6553
9,55,2,2,2,1,1,1,0,2,0.7857
9,56,2,2,2,2,2,2,1,1,1.3106
9,57,2,2,2,1,6,1,0,2,0.8299
9,58,2,2,2,1,5,1,0,2,0.784
9,59,2,2,2,1,3,2,0,2,0.994
9,60,2,2,1,2,2,1,0,2,1.3593
9,61,2,2,2,2,4,2,1,2,0.8317
9,62,2,2,1,2,4,1,0,1,0.8378
9,63,2,2,1,1,5,1,1,1,0.7448
9,64,2,2,2,1,5,2,0,2,0.7289
9,65,2,2,1,1,6,1,1,1,0.9169
9,66,2,2,2,2,5,1,1,2,0.6487
9,67,2,2,1,1,2,1,1,1,1.7392
9,68,2,2,2,1,6,2,0,2,1.0955
9,69,2,2,2,2,3,1,1,2,0.9827
9,70,2,2,2,1,2,2,0,2,1.1155
9,71,2,2,1,1,6,2,1,1,1.2521
9,72,2,2,2,2,1,1,1,2,0.6546
9,73,2,2,2,2,3,2,1,2,0.5812
9,74,2,2,2,1,3,1,0,2,0.6191
9,75,2,2,2,2,6,1,1,1,1.1048
9,76,2,2,1,2,3,2,0,1,0.6205
9,77,2,2,1,1,3,1,1,1,0.5421
9,78,2,2,1,2,5,1,0,1,1.2265
9,79,2,2,1,2,1,2,0,1,0.7282
9,80,2,2,2,1,4,2,0,2,1.2243
9,81,2,2,1,1,1,1,1,1,0.6503
9,82,2,2,2,2,5,2,1,2,0.9089
9,83,2,2,1,2,3,1,0,1,0.9725
9,84,2,2,2,2,6,2,1,2,0.9891
9,85,2,2,1,2,6,2,0,2,0.6621
9,86,2,2,1,1,1,2,1,1,0.7646
9,87,2,2,2,2,4,1,1,2,0.8414
9,88,2,2,1,2,1,1,0,1,0.6844
9,89,2,2,1,1,4,1,1,1,0.7679
9,90,2,2,1,1,3,2,1,1,0.5769
9,91,2,2,2,2,2,1,1,2,0.8421
9,92,2,2,1,2,2,2,0,1,0.7438
9,93,2,2,2,1,1,2,0,2,0.856
9,94,2,2,2,1,2,1,0,1,0.9902
9,95,2,2,1,1,5,2,1,2,0.9435
9,96,2,2,1,1,2,2,1,1,0.6121
9,97,3,2,1,1,6,2,1,1,0.6647
9,98,3,2,1,2,6,1,0,1,0.5797
9,99,3,2,1,1,1,1,1,1,0.8448
9,100,3,2,1,1,3,2,1,1,0.5428
9,101,3,2,1,1,3,1,1,1,0.599
9,102,3,2,1,1,4,2,1,1,1.7365
9,103,3,2,2,1,4,1,0,2,0.7728
9,104,3,2,2,2,4,2,1,2,0.6577
9,105,3,2,2,1,3,1,0,2,0.6484
9,106,3,2,2,1,1,2,0,2,0.9709
9,107,3,2,2,2,5,1,1,2,1.5635
9,108,3,2,2,1,1,1,0,2,0.7358
9,109,3,2,2,2,5,2,1,2,1.3717
9,110,3,2,2,1,2,2,0,2,0.7205
9,111,3,2,1,2,1,2,0,1,0.7804
9,112,3,2,2,1,4,2,0,2,1.2934
9,113,3,2,1,2,1,1,0,1,0.829
9,114,3,2,1,2,4,1,0,1,0.7191
9,115,3,2,2,1,5,1,0,2,1.1747
9,116,3,2,1,1,2,1,1,1,0.6713
9,117,3,2,2,1,6,2,0,1,1.3661
9,118,3,2,1,1,5,1,1,1,1.2275
9,119,3,2,1,2,2,2,0,1,0.9735
9,120,3,2,1,2,5,2,0,1,0.7746
9,121,3,2,1,1,1,2,1,1,0.6594
9,122,3,2,2,2,1,2,1,2,1.4352
9,123,3,2,1,2,2,1,0,1,0.853
9,124,3,2,2,2,6,2,1,2,0.9873
9,125,3,2,2,2,2,2,1,1,1.5564
9,126,3,2,1,2,3,2,0,1,0.9215
9,127,3,2,2,2,6,1,1,2,0.7813
9,128,3,2,1,1,2,2,1,1,0.9221
9,129,3,2,2,1,5,2,0,2,1.0262
9,130,3,2,2,1,6,1,0,1,0.6404
9,131,3,2,2,2,2,1,1,1,1.3476
9,132,3,2,1,2,6,2,0,1,0.7038
9,133,3,2,2,2,3,2,1,2,0.7755
9,134,3,2,1,2,4,2,0,7,7
9,135,3,2,2,2,1,1,1,2,0.7537
9,136,3,2,2,2,3,1,1,2,0.7482
9,137,3,2,1,1,5,2,1,1,0.6565
9,138,3,2,1,1,4,1,1,1,0.723
9,139,3,2,1,2,3,1,0,1,0.5152
9,140,3,2,2,1,3,2,0,2,0.8627
9,141,3,2,2,1,2,1,0,2,1.4331
9,142,3,2,1,2,5,1,0,1,1.055
9,143,3,2,1,1,6,1,1,1,0.7213
9,144,3,2,2,2,4,1,1,2,0.9262
9,145,4,1,2,2,1,1,1,7,7
9,146,4,1,2,1,4,1,0,2,1.0759
9,147,4,1,2,1,5,2,0,2,0.6433
9,148,4,1,2,1,3,2,0,2,0.5934
9,149,4,1,2,2,4,1,1,2,0.5908
9,150,4,1,1,2,3,2,0,1,0.792
9,151,4,1,1,2,5,2,0,1,0.7811
9,152,4,1,2,2,4,2,1,2,0.7873
9,153,4,1,1,2,4,1,0,1,0.6369
9,154,4,1,1,2,2,1,0,1,0.7675
9,155,4,1,2,2,6,2,1,2,1.0113
9,156,4,1,1,1,4,2,1,1,0.9808
9,157,4,1,1,2,3,1,0,1,0.6657
9,158,4,1,1,1,1,2,1,1,0.7322
9,159,4,1,1,2,1,1,0,1,0.6523
9,160,4,1,2,1,3,1,0,2,0.9278
9,161,4,1,1,1,5,1,1,1,0.7237
9,162,4,1,1,1,6,1,1,1,0.5276
9,163,4,1,1,1,4,1,1,1,0.6006
9,164,4,1,2,1,6,2,0,2,0.6737
9,165,4,1,1,2,2,2,0,1,0.6122
9,166,4,1,1,1,3,1,1,1,0.5978
9,167,4,1,1,1,5,2,1,1,0.5636
9,168,4,1,2,2,5,1,1,2,0.7228
9,169,4,1,2,1,4,2,0,2,0.6547
9,170,4,1,2,2,6,1,1,2,0.5932
9,171,4,1,2,2,3,1,1,2,0.6127
9,172,4,1,1,2,6,2,0,1,0.6622
9,173,4,1,1,1,1,1,1,2,0.6007
9,174,4,1,2,2,2,1,1,2,0.8261
9,175,4,1,2,2,5,2,1,2,0.6808
9,176,4,1,1,1,3,2,1,1,0.968
9,177,4,1,1,1,6,2,1,1,0.6463
9,178,4,1,1,2,6,1,0,1,0.5899
9,179,4,1,1,2,5,1,0,1,0.4409
9,180,4,1,1,1,2,1,1,1,0.4227
9,181,4,1,2,1,1,2,0,2,0.6723
9,182,4,1,2,1,2,1,0,2,0.5351
9,183,4,1,2,1,6,1,0,2,0.603
9,184,4,1,1,2,1,2,0,1,0.5885
9,185,4,1,2,2,1,2,1,2,0.5858
9,186,4,1,2,2,2,2,1,2,0.5479
9,187,4,1,2,1,5,1,0,2,0.7777
9,188,4,1,1,1,2,2,1,1,0.5985
9,189,4,1,2,1,2,2,0,2,0.5488
9,190,4,1,2,1,1,1,0,2,0.6689
9,191,4,1,1,2,4,2,0,2,0.5435
9,192,4,1,2,2,3,2,1,2,0.6224
9,193,5,2,1,1,6,1,1,1,1.1744
9,194,5,2,2,2,4,2,1,2,0.9961
9,195,5,2,1,2,5,2,0,1,0.5581
9,196,5,2,2,2,5,2,1,2,0.7305
9,197,5,2,1,2,3,1,0,1,0.5984
9,198,5,2,2,2,6,2,1,2,0.5435
9,199,5,2,2,2,1,2,1,2,0.8962
9,200,5,2,1,2,6,1,0,1,0.7039
9,201,5,2,2,1,5,2,0,2,0.7284
9,202,5,2,1,1,2,2,1,1,0.8575
9,203,5,2,1,1,6,2,1,1,0.6717
9,204,5,2,1,2,4,1,0,2,0.6625
9,205,5,2,1,2,5,1,0,1,0.6488
9,206,5,2,2,1,6,2,0,2,0.983
9,207,5,2,1,1,4,2,1,2,1.0388
9,208,5,2,1,1,4,1,1,1,0.5491
9,209,5,2,2,1,5,1,0,2,0.9187
9,210,5,2,1,1,5,1,1,1,0.5226
9,211,5,2,1,2,2,2,0,1,0.6663
9,212,5,2,1,2,3,2,0,1,0.6048
9,213,5,2,2,1,6,1,0,2,0.6544
9,214,5,2,1,1,3,1,1,1,0.5811
9,215,5,2,2,2,2,2,1,1,0.7065
9,216,5,2,1,1,1,1,1,1,0.7502
9,217,5,2,1,2,2,1,0,1,0.6637
9,218,5,2,2,2,1,1,1,2,0.5669
9,219,5,2,2,2,4,1,1,2,1.0475
9,220,5,2,2,1,3,2,0,2,1.3017
9,221,5,2,2,1,1,1,0,2,0.8609
9,222,5,2,1,1,2,1,1,1,0.6399
9,223,5,2,2,1,4,1,0,2,0.9623
9,224,5,2,1,1,3,2,1,1,0.7869
9,225,5,2,1,2,1,1,0,1,0.9212
9,226,5,2,1,1,5,2,1,1,0.7288
9,227,5,2,2,1,1,2,0,2,0.9925
9,228,5,2,1,2,1,2,0,1,0.7936
9,229,5,2,1,2,4,2,0,1,0.7946
9,230,5,2,1,2,6,2,0,1,0.5919
9,231,5,2,2,2,3,1,1,2,0.7173
9,232,5,2,2,1,4,2,0,2,0.8934
9,233,5,2,2,2,6,1,1,2,0.7938
9,234,5,2,2,1,2,1,0,2,0.8471
9,235,5,2,2,2,3,2,1,2,0.6613
9,236,5,2,2,2,5,1,1,2,0.9838
9,237,5,2,2,1,2,2,0,2,0.8607
9,238,5,2,1,1,1,2,1,1,0.8317
9,239,5,2,2,2,2,1,1,2,0.7098
9,240,5,2,2,1,3,1,0,2,0.7175
9,241,6,1,2,2,1,2,1,2,0.7914
9,242,6,1,1,1,4,2,1,1,0.646
9,243,6,1,1,2,6,2,0,1,0.5963
9,244,6,1,1,2,5,1,0,1,0.9254
9,245,6,1,2,1,6,1,0,2,0.6051
9,246,6,1,2,1,2,2,0,2,0.6024
9,247,6,1,2,2,5,1,1,2,0.5762
9,248,6,1,1,2,6,1,0,1,0.6493
9,249,6,1,2,1,4,2,0,2,0.5238
9,250,6,1,2,1,3,1,0,2,0.7367
9,251,6,1,1,2,4,2,0,1,0.5406
9,252,6,1,2,1,2,1,0,2,0.7888
9,253,6,1,2,1,5,1,0,2,0.7258
9,254,6,1,1,1,1,1,1,1,0.6055
9,255,6,1,1,1,1,2,1,1,0.5793
9,256,6,1,1,2,2,2,0,1,0.5767
9,257,6,1,2,1,1,1,0,2,0.8417
9,258,6,1,2,2,1,1,1,2,0.72
9,259,6,1,2,1,6,2,0,2,0.7446
9,260,6,1,1,2,1,2,0,1,0.7927
9,261,6,1,1,2,1,1,0,1,0.6658
9,262,6,1,1,1,2,2,1,1,0.5404
9,263,6,1,2,2,2,1,1,2,0.5729
9,264,6,1,1,1,5,1,1,1,0.5703
9,265,6,1,2,2,4,1,1,2,0.8001
9,266,6,1,2,2,4,2,1,2,0.6143
9,267,6,1,1,1,4,1,1,1,0.5881
9,268,6,1,1,2,3,2,0,1,0.9812
9,269,6,1,1,1,6,1,1,1,0.6661
9,270,6,1,2,2,6,1,1,2,0.8488
9,271,6,1,1,2,3,1,0,1,0.5233
9,272,6,1,2,2,3,1,1,2,0.5795
9,273,6,1,2,1,1,2,0,2,0.5886
9,274,6,1,2,2,5,2,1,2,0.6028
9,275,6,1,1,1,5,2,1,1,0.5362
9,276,6,1,2,1,5,2,0,2,0.6041
9,277,6,1,2,1,3,2,0,2,0.6014
9,278,6,1,1,1,3,1,1,1,0.4708
9,279,6,1,1,1,2,1,1,1,0.51
9,280,6,1,1,2,2,1,0,1,0.5139
9,281,6,1,2,2,2,2,1,2,0.5296
9,282,6,1,1,1,3,2,1,1,0.4865
9,283,6,1,2,2,6,2,1,2,0.5492
9,284,6,1,2,1,4,1,0,2,0.7334
9,285,6,1,1,2,4,1,0,1,0.4734
9,286,6,1,2,2,3,2,1,2,0.5295
9,287,6,1,1,2,5,2,0,1,0.5098
9,288,6,1,1,1,6,2,1,1,0.63
9,289,7,1,1,1,3,2,1,1,0.7286
9,290,7,1,2,1,5,1,0,2,0.6017
9,291,7,1,1,1,3,1,1,1,0.471
9,292,7,1,1,2,3,2,0,1,0.5338
9,293,7,1,1,2,5,2,0,1,0.5377
9,294,7,1,2,1,4,2,0,2,0.5299
9,295,7,1,1,2,6,1,0,1,0.6383
9,296,7,1,1,1,6,2,1,1,0.8328
9,297,7,1,2,1,6,2,0,2,0.647
9,298,7,1,2,2,6,2,1,2,0.5907
9,299,7,1,2,1,2,2,0,2,0.5998
9,300,7,1,1,2,3,1,0,2,0.5383
9,301,7,1,2,1,1,2,0,2,0.6997
9,302,7,1,1,1,1,2,1,1,0.6669
9,303,7,1,2,2,1,1,1,2,0.7098
9,304,7,1,2,1,6,1,0,2,0.7058
9,305,7,1,2,2,2,2,1,2,0.7134
9,306,7,1,2,1,5,2,0,2,0.5983
9,307,7,1,1,2,1,1,0,1,0.7993
