SN,Trial,vstmLoad,Targ,Flnk,Congruency,Resp,RT,vstmCond,vstmResp,vstmRT
1,1,1,1,1,1,1,1.1466,2,2,1.1304
1,2,2,1,2,0,1,1.3619,1,2,1.2176
1,3,1,2,1,0,2,0.845,1,1,0.7007
1,4,1,1,2,0,1,1.2057,2,2,0.6774
1,5,1,1,1,1,1,1.0779,2,2,0.6777
1,6,2,2,1,0,7,7,2,1,1.2781
1,7,1,1,2,0,1,0.9225,1,1,0.7782
1,8,1,1,2,0,1,0.9448,1,1,0.6085
1,9,1,1,1,1,1,0.8235,2,2,0.7433
1,10,1,1,1,1,1,0.7532,2,2,0.7369
1,11,1,2,2,1,7,7,1,1,0.7666
1,12,2,1,2,0,1,0.8168,2,1,0.8006
1,13,1,2,1,0,2,0.8516,1,1,0.7074
1,14,2,2,2,1,2,1.0725,2,2,0.9283
1,15,2,2,1,0,2,0.9419,1,1,0.8617
1,16,1,2,2,1,2,1.0098,1,1,0.5456
1,17,1,2,1,0,2,1.2674,1,1,0.8032
1,18,2,2,1,0,2,0.9462,2,2,0.93
1,19,1,1,2,0,7,7,1,1,0.7596
1,20,1,1,1,1,1,0.9548,1,1,0.5546
1,21,2,2,2,1,2,0.9329,1,1,0.9807
1,22,2,2,2,1,2,0.6794,2,2,0.7272
1,23,2,1,2,0,1,0.9408,2,2,0.7325
1,24,2,2,2,1,7,7,2,2,0.8144
1,25,2,1,2,0,1,0.6779,1,1,0.9176
1,26,1,2,2,1,2,0.9312,1,1,0.467
1,27,1,1,1,1,1,0.643,1,1,0.5627
1,28,2,2,1,0,2,0.6615,1,1,0.7093
1,29,1,1,2,0,1,0.6904,1,1,0.6742
1,30,1,1,1,1,1,0.5626,1,1,0.4824
1,31,2,2,2,1,1,0.7393,1,2,0.7903
1,32,1,2,1,0,7,7,2,2,1.5439
1,33,1,2,1,0,2,0.7827,1,1,0.7025
1,34,2,2,2,1,2,0.8874,1,1,0.8071
1,35,2,1,1,1,1,0.9501,2,1,0.9339
1,36,2,1,2,0,7,7,2,2,1.6955
1,37,1,1,2,0,1,0.7142,1,1,0.9539
1,38,1,2,1,0,2,0.8042,2,2,0.724
1,39,1,2,2,1,2,1.3385,2,2,1.0023
1,40,1,1,1,1,1,0.7533,1,1,0.673
1,41,1,2,2,1,2,0.8175,2,2,0.7372
1,42,2,2,2,1,2,0.7588,2,1,0.8066
1,43,2,2,1,0,2,0.8576,2,2,0.7134
1,44,1,2,1,0,2,0.7467,1,1,0.5385
1,45,1,1,1,1,1,0.9403,2,2,0.6041
1,46,1,2,1,0,2,0.7434,2,2,0.5992
1,47,2,2,1,0,2,0.6862,1,1,0.734
1,48,2,1,2,0,1,0.8482,2,2,0.64
1,49,2,1,1,1,1,0.8198,2,1,1.0595
1,50,2,1,2,0,1,0.7237,2,1,0.7075
1,51,1,2,2,1,2,0.8408,1,1,0.4406
1,52,1,2,2,1,2,0.7733,2,2,0.9491
1,53,1,1,2,0,1,0.7471,2,2,0.6029
1,54,2,1,1,1,1,0.6899,1,1,0.7377
1,55,1,2,1,0,2,0.6953,2,2,0.743
1,56,2,1,1,1,1,0.6771,1,1,0.7889
1,57,2,2,2,1,2,0.8796,1,1,0.7354
1,58,2,2,1,0,2,0.6812,2,1,0.793
1,59,1,1,2,0,2,0.78,1,1,1.296
1,60,2,1,2,0,1,0.7579,1,2,0.7417
1,61,2,2,2,1,2,0.7235,2,1,0.7073
1,62,1,1,2,0,1,0.8525,2,2,0.6442
1,63,2,2,1,0,2,0.9219,1,1,0.7136
1,64,2,1,1,1,1,1.0147,1,1,0.7425
1,65,2,2,2,1,2,0.6869,2,1,0.7987
1,66,2,2,1,0,2,0.6953,1,1,1.8951
1,67,1,1,2,0,1,0.7283,1,1,0.5841
1,68,2,2,1,0,2,0.5313,2,2,0.7071
1,69,1,1,1,1,1,0.6883,2,2,0.608
1,70,2,1,2,0,1,0.7591,1,1,0.8068
1,71,1,1,2,0,1,0.6181,2,2,0.5378
1,72,2,1,2,0,1,0.6601,1,1,1.0279
1,73,1,1,2,0,1,0.7436,1,1,0.5993
1,74,1,1,1,1,1,0.6106,2,2,0.5944
1,75,2,2,2,1,2,0.6814,1,1,0.7932
1,76,2,1,1,1,1,0.5639,1,2,0.6757
1,77,1,2,1,0,2,0.8702,1,1,1.046
1,78,2,2,2,1,2,0.6741,1,1,0.7219
1,79,1,2,2,1,2,0.6913,2,2,0.739
1,80,2,2,1,0,2,0.6613,2,2,0.5811
1,81,1,1,1,1,1,0.6799,2,2,0.5997
1,82,2,2,2,1,2,0.6109,2,1,0.7867
1,83,2,1,1,1,1,0.6862,2,1,0.798
1,84,2,2,1,0,2,0.5929,1,1,0.7048
1,85,1,1,1,1,1,0.6219,1,1,0.8617
1,86,1,2,1,0,2,0.6258,2,2,0.5456
1,87,2,1,1,1,1,0.6914,2,2,0.5472
1,88,2,1,2,0,1,0.7453,2,2,0.6011
1,89,2,2,1,0,2,0.769,1,1,0.8808
1,90,1,1,2,0,1,0.7494,1,1,0.6692
1,91,2,1,1,1,1,0.6739,1,1,0.7856
1,92,1,2,1,0,2,0.7601,2,2,0.6799
1,93,2,1,2,0,1,0.7773,1,1,1.0171
1,94,2,1,1,1,1,0.6923,1,2,0.8041
1,95,1,2,1,0,2,0.9191,2,2,0.5188
1,96,2,1,1,1,1,0.7405,1,1,0.5962
1,97,1,1,2,0,1,0.8051,2,2,2.9008
1,98,2,1,1,1,1,0.6751,1,1,0.6589
1,99,1,1,1,1,1,0.5878,1,1,0.5076
1,100,2,1,1,1,1,0.5894,2,2,0.8932
1,101,1,1,2,0,1,0.622,2,2,0.6698
1,102,1,2,2,1,2,0.6863,2,2,0.542
1,103,2,1,2,0,1,0.7401,1,1,0.7239
1,104,2,1,2,0,1,0.7102,2,2,0.566
1,105,2,1,1,1,1,0.6007,1,1,0.9045
1,106,1,1,2,0,1,0.6856,1,1,0.6694
1,107,1,1,2,0,1,0.7498,2,2,0.6056
1,108,1,1,1,1,1,0.6286,2,2,0.6124
1,109,2,2,1,0,1,0.6876,2,2,0.9137
1,110,1,1,1,1,1,0.6308,1,1,0.8706
1,111,2,1,2,0,1,0.7039,1,1,1.7117
1,112,2,1,1,1,1,0.7449,2,2,0.6007
1,113,2,2,1,0,2,0.7922,2,2,0.84
1,114,2,2,2,1,2,0.6799,2,1,0.7277
1,115,1,2,1,0,2,0.6573,1,1,0.577
1,116,2,2,2,1,1,0.9958,2,1,1.172
1,117,2,1,2,0,1,0.7443,1,1,0.8561
1,118,1,1,1,1,1,0.632,2,2,0.6158
1,119,1,1,1,1,1,0.6153,1,1,0.7911
1,120,1,2,1,0,2,1.2018,2,1,0.8016
1,121,1,1,2,0,1,0.7246,2,2,0.6444
1,122,1,2,2,1,2,0.7483,1,1,0.6041
1,123,2,1,2,0,1,0.6911,1,1,0.7389
1,124,1,2,2,1,2,0.8128,2,2,0.6685
1,125,1,2,2,1,2,1.0976,2,2,0.8254
1,126,2,1,1,1,1,1.3811,2,2,0.7889
1,127,2,2,2,1,2,0.6759,1,1,0.7237
1,128,2,1,1,1,2,1.0012,2,2,0.8456
1,129,2,1,1,1,1,0.6952,2,1,0.743
1,130,1,1,1,1,1,0.6138,1,1,0.5976
1,131,2,1,1,1,1,0.6323,1,1,0.5522
1,132,2,2,1,0,2,0.6862,2,2,0.798
1,133,2,2,2,1,2,0.8248,1,1,0.6165
1,134,1,1,2,0,1,0.6278,1,1,1.0596
1,135,2,2,2,1,2,0.6119,1,1,0.5957
1,136,2,1,2,0,2,0.6187,2,2,0.8514
1,137,1,2,2,1,2,0.6795,1,1,0.5993
1,138,1,1,2,0,1,0.7386,2,2,0.6583
1,139,2,1,2,0,1,0.6631,2,1,0.9028
1,140,1,1,1,1,1,0.6206,1,1,0.6044
1,141,2,1,2,0,1,0.7436,2,1,0.4714
1,142,2,1,2,0,1,0.5841,2,2,0.7599
1,143,1,2,1,0,2,0.6939,1,1,0.6777
1,144,2,2,2,1,2,0.6941,1,1,0.6779
1,145,2,1,2,0,1,0.6303,2,1,0.8701
1,146,1,2,2,1,2,0.6585,1,1,0.7703
1,147,1,2,2,1,2,0.6808,1,1,0.7286
1,148,2,2,1,0,2,0.9304,1,1,1.2982
1,149,1,2,2,1,2,0.7315,2,2,0.6513
1,150,2,1,1,1,1,0.8192,2,1,0.739
1,151,1,2,1,0,2,0.6738,1,1,0.5936
1,152,1,1,1,1,1,0.6165,1,1,0.6003
1,153,1,2,2,1,2,0.6233,1,1,0.4791
1,154,1,1,2,0,1,0.5676,2,2,0.6153
1,155,2,2,1,0,2,0.5626,1,1,0.6744
1,156,1,1,1,1,1,0.6268,2,2,0.6106
1,157,1,2,1,0,2,0.6218,2,2,0.5416
1,158,1,2,1,0,1,0.6874,1,1,0.9135
1,159,1,1,1,1,1,0.7756,2,2,0.6313
1,160,2,2,2,1,2,0.619,2,1,0.7948
1,161,1,2,1,0,2,0.6471,2,2,0.5668
1,162,1,2,1,0,2,0.6539,2,2,0.6376
1,163,2,2,1,0,2,0.6658,1,1,0.8416
1,164,1,2,1,0,2,0.7455,2,2,0.6013
1,165,1,2,1,0,2,0.6883,1,1,0.7361
1,166,2,1,1,1,1,0.7577,2,1,0.6135
1,167,1,1,2,0,1,0.6607,2,2,0.7085
1,168,2,1,1,1,1,0.8176,1,1,0.8014
1,169,1,2,2,1,2,0.6884,2,2,0.7362
1,170,1,2,2,1,2,0.874,2,2,0.6018
1,171,2,2,1,0,2,0.677,2,1,0.8528
1,172,2,2,1,0,2,0.653,2,1,0.9567
1,173,2,1,2,0,1,0.715,1,1,0.7628
1,174,1,1,1,1,1,0.6211,1,1,0.5409
1,175,2,2,2,1,2,0.5992,2,2,0.775
1,176,1,2,2,1,2,0.6973,1,1,0.5531
1,177,1,2,2,1,2,0.8151,1,1,0.7349
1,178,2,2,2,1,2,1.0125,2,1,0.6763
1,179,1,2,2,1,2,0.7927,1,1,0.7125
1,180,1,1,2,0,1,0.8098,1,1,0.9856
1,181,1,2,2,1,2,0.6961,2,2,0.6799
1,182,1,2,1,0,2,0.6963,1,1,0.6161
1,183,2,2,1,0,2,0.656,2,2,0.7039
1,184,2,2,2,1,1,1.197,1,1,1.1091
1,185,1,2,2,1,2,0.6144,2,2,0.8542
1,186,2,2,1,0,2,0.8743,1,1,0.9221
1,187,2,1,1,1,1,0.7319,1,1,0.8437
1,188,2,2,2,1,7,7,1,7,7
1,189,2,1,1,1,1,0.6779,2,2,0.7257
1,190,2,2,1,0,2,0.7473,1,2,1.4351
1,191,2,1,2,0,1,0.6587,1,1,0.6425
1,192,1,1,2,0,1,0.6302,2,2,0.614
2,1,1,2,2,1,2,1.0104,2,1,0.8661
2,2,1,1,1,1,1,0.8959,2,1,1.1357
2,3,1,1,1,1,1,0.7293,1,1,0.713
2,4,2,2,2,1,2,0.6941,2,2,1.3819
2,5,2,2,2,1,1,0.6453,1,2,0.9184
2,6,1,2,1,0,1,0.9195,2,2,1.7423
2,7,1,2,1,0,2,0.8094,2,2,1.1132
2,8,2,2,1,0,2,0.6942,1,1,1.958
2,9,2,1,1,1,1,0.9479,2,1,1.6357
2,10,2,2,2,1,2,0.9271,2,2,0.6549
2,11,2,1,2,0,1,0.8228,1,2,1.3186
2,12,2,1,2,0,1,0.8049,2,2,0.7246
2,13,2,2,2,1,2,0.7462,2,2,0.858
2,14,1,2,2,1,2,0.7502,1,1,0.862
2,15,2,2,2,1,2,0.9461,1,2,0.4819
2,16,2,1,2,0,1,0.6991,1,2,1.3868
2,17,2,1,1,1,1,0.5413,1,1,1.2931
2,18,1,2,1,0,2,0.7499,2,2,1.1817
2,19,1,2,1,0,2,0.5759,2,1,0.7518
2,20,1,1,2,0,1,0.8785,2,2,0.7343
2,21,1,1,2,0,1,0.6161,1,1,0.7279
2,22,1,1,1,1,1,0.5692,1,2,0.809
2,23,2,2,1,0,2,0.604,2,2,1.1638
2,24,2,2,1,0,2,0.7618,1,2,0.9376
2,25,2,1,2,0,1,0.7311,1,2,0.5869
2,26,1,2,1,0,2,0.6813,2,1,1.0491
2,27,1,2,2,1,2,0.6309,2,2,0.9986
2,28,1,1,2,0,1,0.6856,2,2,0.7974
2,29,2,1,1,1,1,0.6961,1,1,0.7439
2,30,1,1,2,0,1,0.614,2,1,1.0458
2,31,1,2,1,0,2,0.5988,2,2,1.2226
2,32,1,1,1,1,1,1.5298,2,2,0.8096
2,33,2,1,1,1,1,0.5009,2,2,0.5486
2,34,1,1,1,1,1,0.5025,2,2,0.4223
2,35,2,1,1,1,1,0.4298,1,1,0.3495
2,36,1,2,1,0,2,0.6196,1,2,0.6674
2,37,2,1,2,0,1,0.5919,1,1,1.2158
2,38,2,1,2,0,1,0.935,1,2,0.6629
2,39,1,2,2,1,2,0.471,2,2,0.7108
2,40,2,2,1,0,2,0.6919,1,2,0.4197
2,41,2,1,2,0,2,0.7428,2,1,0.462
2,42,1,1,1,1,1,0.8712,2,2,0.8549
2,43,2,2,2,1,2,0.6948,2,2,0.5507
2,44,1,1,2,0,1,0.6325,2,2,0.5522
2,45,2,1,2,0,1,0.7385,2,1,0.8503
2,46,1,2,1,0,2,1.0463,1,2,0.9661
2,47,2,1,2,0,2,1.3643,2,2,0.524
2,48,1,1,1,1,1,0.5653,2,2,0.5492
2,49,2,2,2,1,2,0.695,1,2,0.2948
2,50,1,2,1,0,2,0.9797,1,1,0.9635
2,51,2,1,1,1,1,0.6335,1,2,0.7453
2,52,2,1,1,1,1,0.4594,1,1,0.3791
2,53,2,2,2,1,1,0.5499,1,1,0.9172
2,54,2,2,1,0,2,0.6865,2,2,0.5423
2,55,2,1,1,1,1,0.6241,2,2,0.4799
2,56,2,2,1,0,2,0.6964,1,7,7
2,57,2,2,1,0,2,0.5789,1,1,0.6267
2,58,1,2,1,0,2,0.6262,1,1,0.802
2,59,2,2,1,0,2,0.5492,2,1,0.725
2,60,1,2,1,0,2,0.5266,2,2,0.5743
2,61,1,2,1,0,2,0.4929,2,2,0.6046
2,62,1,2,1,0,2,0.6277,1,1,0.6115
2,63,1,2,2,1,2,0.6867,1,2,1.4385
2,64,2,2,1,0,2,0.5341,2,2,0.5819
2,65,2,1,2,0,1,1.1018,2,2,0.6376
2,66,1,1,2,0,7,7,2,7,7
2,67,2,1,1,1,1,0.485,2,2,0.7248
2,68,2,2,1,0,2,0.6184,1,2,0.4742
2,69,2,2,2,1,2,0.5229,1,1,0.5066
2,70,1,1,2,0,1,0.8798,2,7,7
2,71,2,2,2,1,2,0.7859,1,1,0.8336
2,72,1,2,1,0,1,0.7611,1,1,0.9806
2,73,1,2,2,1,2,0.7433,1,1,0.8551
2,74,2,2,2,1,2,0.5839,1,2,0.6957
2,75,2,2,1,0,2,0.6606,2,1,0.5804
2,76,1,2,1,0,2,0.8432,2,2,0.763
2,77,2,1,2,0,1,0.697,2,2,0.5528
2,78,1,2,2,1,2,0.5589,2,2,0.6067
2,79,1,1,1,1,1,0.7577,1,1,0.9974
2,80,1,2,2,1,2,0.7602,1,1,0.68
2,81,1,1,1,1,1,0.6964,2,2,0.9362
2,82,2,2,2,1,2,0.682,2,2,0.8578
2,83,2,2,2,1,2,0.6859,2,2,0.4777
2,84,1,1,1,1,1,0.5544,2,2,1.3702
2,85,1,1,1,1,1,0.5931,2,2,0.3849
2,86,1,2,1,0,2,0.5674,2,2,0.4872
2,87,2,2,2,1,2,0.6278,2,2,0.6756
2,88,1,1,2,0,1,0.6921,1,1,0.4839
2,89,1,1,2,0,2,0.6128,1,1,0.5894
2,90,2,1,1,1,1,0.4844,2,1,0.7242
2,91,2,1,2,0,1,0.6186,2,2,1.3703
2,92,1,1,1,1,1,0.5763,2,2,0.56
2,93,2,2,1,0,2,0.6301,2,2,1.0619
2,94,2,2,2,1,2,0.6143,1,2,0.3421
2,95,1,1,2,0,1,0.5319,2,2,0.5798
2,96,2,2,2,1,2,0.6145,1,1,0.9183
2,97,1,1,2,0,1,0.7437,2,2,0.4715
2,98,2,1,2,0,1,0.5533,1,1,0.5371
2,99,1,2,1,0,2,0.6881,1,2,1.7599
2,100,1,1,2,0,1,0.5379,1,1,0.7776
2,101,2,1,1,1,1,0.6241,1,1,0.8
2,102,1,2,2,1,2,0.8149,1,2,0.4787
2,103,1,2,2,1,2,0.7951,2,2,0.6509
2,104,1,2,1,0,2,0.7431,1,1,1.2389
2,105,1,2,2,1,2,0.6148,2,2,0.5986
2,106,1,1,2,0,1,0.6267,2,2,0.8665
2,107,2,1,1,1,1,0.6307,2,2,1.0624
2,108,2,1,2,0,7,7,2,7,7
2,109,2,2,1,0,2,0.5452,1,2,0.593
2,110,1,2,1,0,2,0.6115,1,2,1.0433
2,111,1,2,2,1,2,0.4161,1,2,0.7839
2,112,2,1,2,0,1,0.4745,2,1,0.5862
2,113,2,2,2,1,2,0.6857,1,2,0.7335
2,114,2,1,2,0,1,1.2914,2,2,0.6351
2,115,2,2,1,0,2,0.628,2,1,0.4198
2,116,1,1,1,1,1,0.556,1,1,0.6678
2,117,2,2,2,1,2,0.4451,2,2,0.621
2,118,2,2,2,1,2,0.58,2,2,0.6917
2,119,2,1,1,1,1,0.5684,1,1,0.4882
2,120,1,2,2,1,2,0.8208,2,2,0.7406
2,121,2,2,2,1,1,0.9424,2,2,0.9736
2,122,2,1,1,1,1,0.5679,1,1,0.8077
2,123,2,1,2,0,2,0.8227,1,2,0.9075
2,124,1,2,1,0,2,0.6371,1,1,0.5569
2,125,1,2,1,0,2,0.6792,1,2,0.983
2,126,2,2,1,0,2,0.7789,1,1,0.5067
2,127,2,1,1,1,1,0.7283,2,1,0.776
2,128,1,1,1,1,1,0.5828,1,1,0.5026
2,129,2,2,2,1,2,0.9539,2,2,0.7457
2,130,1,1,1,1,1,0.6129,1,1,1.3007
2,131,2,1,1,1,1,0.5655,2,2,0.9973
2,132,1,2,1,0,2,0.696,1,2,0.4238
2,133,1,2,2,1,2,0.5836,2,2,0.5033
2,134,2,2,1,0,2,0.8882,1,2,0.936
2,135,2,1,1,1,1,0.5376,1,1,1.0334
2,136,1,2,2,1,2,0.9058,1,1,0.7615
2,137,1,2,1,0,2,0.6838,2,2,0.9236
2,138,2,2,2,1,2,0.6172,1,1,0.793
2,139,2,1,2,0,1,0.7322,2,1,0.844
2,140,2,2,1,0,2,0.6846,1,1,0.4125
2,141,1,2,2,1,2,0.6876,1,1,0.6714
2,142,2,2,1,0,2,0.8158,2,2,0.5436
2,143,2,1,1,1,1,0.6896,2,1,0.6733
2,144,1,1,1,1,1,0.5337,1,1,0.4535
2,145,2,1,2,0,1,0.7574,1,1,0.4852
2,146,1,2,2,1,2,0.7421,2,2,0.5979
2,147,1,1,2,0,2,0.7489,1,1,0.5322
2,148,2,2,2,1,2,0.486,1,1,1.3018
2,149,2,2,1,0,2,0.6828,2,1,0.6026
2,150,2,1,1,1,1,0.6499,2,1,0.5696
2,151,2,2,1,0,2,0.7162,2,1,1.02
2,152,2,1,2,0,1,0.7312,1,1,0.843
2,153,1,1,2,0,1,0.6424,1,1,0.4982
2,154,1,2,1,0,2,0.6911,2,2,0.8029
2,155,2,1,2,0,1,0.9459,1,7,7
2,156,2,2,1,0,2,0.6482,1,1,1.016
2,157,1,1,2,0,1,0.6794,2,2,0.7272
2,158,1,1,1,1,1,0.6326,2,2,0.8083
2,159,2,1,1,1,1,0.6196,2,2,2.7153
2,160,2,1,2,0,1,0.5565,1,1,0.6043
2,161,2,1,2,0,1,0.5832,2,2,0.375
2,162,2,2,1,0,2,0.5871,2,1,0.5709
2,163,1,1,1,1,1,0.5255,1,2,0.7653
2,164,1,1,2,0,1,0.5316,1,1,0.5153
2,165,1,2,2,1,2,0.5045,2,2,1.3843
2,166,2,1,1,1,1,0.5667,1,1,0.6785
2,167,2,2,1,0,1,0.5029,2,2,0.3412
2,168,1,1,1,1,1,0.4951,1,1,0.7988
2,169,2,1,1,1,1,0.5578,2,1,0.4136
2,170,1,1,2,0,1,0.5851,2,2,0.5049
2,171,1,2,2,1,2,0.7383,2,2,0.6581
2,172,1,1,1,1,1,0.6105,1,1,0.9783
2,173,2,2,1,0,2,0.6653,1,2,0.393
2,174,1,1,2,0,1,0.5881,1,1,0.5718
2,175,2,1,1,1,1,0.6184,1,2,0.7302
2,176,1,1,2,0,1,0.6598,1,1,0.8356
2,177,2,2,2,1,2,0.5593,2,1,0.351
2,178,1,1,1,1,1,0.5409,1,1,0.6527
2,179,1,2,2,1,1,0.6926,1,1,0.5347
2,180,2,1,2,0,1,0.5643,1,1,0.4201
2,181,1,1,2,0,1,0.8233,1,1,0.4871
2,182,1,2,2,1,2,0.808,1,2,0.6638
2,183,1,1,1,1,1,0.5243,2,2,0.764
2,184,1,2,2,1,2,0.6393,2,2,0.6231
2,185,1,1,1,1,1,0.5468,1,2,0.5945
2,186,1,2,2,1,2,0.5256,1,1,0.5093
2,187,1,1,2,0,1,0.9465,1,1,0.5463
2,188,1,1,1,1,1,0.5811,2,2,0.7568
2,189,1,1,2,0,1,0.6909,1,1,0.7387
2,190,2,1,1,1,1,0.6323,1,1,0.744
2,191,1,2,2,1,2,0.6899,1,1,0.7376
2,192,1,1,2,0,1,0.8232,2,2,0.487
3,1,1,2,1,0,2,1.0823,2,2,0.8741
3,2,1,2,1,0,2,1.0443,2,2,0.9641
3,3,2,1,2,0,1,1.0064,2,2,1.1182
3,4,2,2,2,1,2,0.9435,1,1,0.7352
3,5,2,1,2,0,1,1.0768,1,2,1.6366
3,6,1,1,1,1,1,0.9802,1,1,1.284
3,7,2,1,1,1,1,0.8166,2,1,0.8004
3,8,1,2,2,1,2,1.1714,1,1,0.8352
3,9,2,2,1,0,2,1.0069,1,1,0.8626
3,10,2,1,1,1,1,0.8828,2,2,1.6986
3,11,1,1,1,1,1,0.9474,2,2,0.8671
3,12,2,1,2,0,1,1.1433,2,2,2.2791
3,13,1,1,2,0,1,0.9513,1,1,1.1271
3,14,1,2,2,1,2,1.0805,1,1,0.8082
3,15,1,1,2,0,1,1.0152,2,2,0.999
3,16,1,2,1,0,2,1.0059,2,2,1.1177
3,17,1,2,1,0,2,1.007,1,1,0.9908
3,18,1,2,1,0,2,0.9978,2,2,1.0456
3,19,2,2,1,0,2,0.8892,1,1,0.809
3,20,1,1,2,0,1,1.1322,1,1,1.372
3,21,1,1,1,1,1,1.0025,1,1,0.5382
3,22,2,2,1,0,2,0.9688,2,2,1.1446
3,23,2,1,1,1,1,1.0626,2,2,1.1104
3,24,2,2,1,0,2,1.0637,1,2,2.0075
3,25,2,2,1,0,2,1.007,1,1,0.8628
3,26,1,1,2,0,1,0.8359,2,2,0.6277
3,27,1,1,2,0,1,0.8008,1,1,0.4646
3,28,2,2,2,1,2,1.0768,2,1,0.9966
3,29,2,1,1,1,1,1.1793,1,2,1.9951
3,30,1,1,1,1,1,1.4337,1,1,2.1855
3,31,1,1,1,1,1,0.8761,2,1,1.8199
3,32,2,1,1,1,1,1.0364,2,2,1.4682
3,33,2,2,2,1,2,1.0218,2,2,0.8776
3,34,1,2,1,0,2,1.014,1,1,0.8058
3,35,2,1,2,0,1,0.9488,2,2,0.9966
3,36,1,1,1,1,1,1.0153,2,2,0.6151
3,37,2,1,2,0,1,1.1553,2,2,1.523
3,38,2,2,2,1,2,1.0005,2,2,1.3684
3,39,1,2,1,0,2,0.8995,1,1,0.8833
3,40,2,2,1,0,2,0.9439,1,1,2.0157
3,41,2,1,1,1,1,0.9468,2,2,0.8026
3,42,1,2,2,1,2,1.0095,2,2,0.6733
3,43,1,1,1,1,1,0.806,2,2,0.9178
3,44,1,2,1,0,2,1.0593,1,1,0.5951
3,45,1,1,1,1,1,0.8623,1,1,0.5901
3,46,2,2,1,0,2,0.9971,2,2,0.7889
3,47,2,1,1,1,1,1.2806,1,1,0.8163
3,48,1,1,2,0,2,0.7556,2,2,0.6551
3,49,1,2,2,1,2,1.015,2,2,0.7428
3,50,2,2,2,1,2,0.9446,2,1,0.6724
3,51,2,2,2,1,2,1.1088,1,1,1.0926
3,52,2,2,2,1,2,0.9702,2,2,1.4659
3,53,2,2,1,0,2,1.0023,1,1,1.6261
3,54,2,2,1,0,2,0.8984,1,1,1.7781
3,55,1,2,2,1,2,1.0725,2,2,0.6723
3,56,2,1,2,0,1,1.2008,2,2,1.9525
3,57,1,1,2,0,1,1.3265,1,1,0.7342
3,58,1,1,1,1,1,1.1281,1,1,0.7278
3,59,2,2,2,1,2,0.8774,1,1,0.7972
3,60,2,2,1,0,2,1.0042,2,2,1.116
3,61,1,1,1,1,1,1.1097,2,2,0.6455
3,62,1,2,2,1,2,1.0695,2,2,0.6693
3,63,2,2,2,1,2,1.2094,1,1,0.7452
3,64,2,1,1,1,1,1.011,2,2,1.5068
3,65,2,1,2,0,1,0.9431,2,1,0.7989
3,66,2,1,1,1,1,0.9398,1,2,1.3076
3,67,2,2,1,0,2,1.4169,2,2,0.9527
3,68,2,1,2,0,1,0.7389,1,2,1.4267
3,69,1,1,1,1,1,1.2903,1,2,0.8262
3,70,1,1,1,1,1,0.7896,1,1,0.7094
3,71,1,1,2,0,1,0.8825,2,2,0.5463
3,72,1,1,1,1,1,0.7561,1,1,0.4839
3,73,2,2,1,0,2,1.6368,2,1,0.7246
3,74,2,1,2,0,1,1.1662,1,1,1.3419
3,75,1,1,1,1,1,1.0887,2,2,0.6884
3,76,1,1,1,1,1,0.7571,2,2,0.8689
3,77,1,2,2,1,1,0.7257,1,1,0.7885
3,78,2,2,2,1,2,1.1993,2,1,0.991
3,79,1,1,1,1,1,0.9178,1,1,1.2216
3,80,1,2,2,1,2,1.0808,1,1,0.8085
3,81,1,1,1,1,1,0.9397,2,2,0.7315
3,82,2,2,1,0,2,1.1894,1,1,2.1331
3,83,1,2,2,1,2,0.9988,2,2,0.5986
3,84,1,2,1,0,2,1.1454,1,1,0.9371
3,85,1,2,2,1,2,1.0787,2,2,1.2545
3,86,2,2,2,1,2,1.1424,1,1,1.1902
3,87,1,1,2,0,1,0.9449,2,2,0.7366
3,88,1,2,1,0,2,1.0025,2,2,0.6022
3,89,2,1,2,0,1,0.8695,1,2,2.0693
3,90,1,2,2,1,2,1.018,2,2,2.2178
3,91,1,2,2,1,2,1.0821,2,2,1.2578
3,92,2,1,2,0,1,0.9994,1,1,2.1991
3,93,2,2,1,0,2,1.0347,1,1,1.8505
3,94,2,2,1,0,2,0.8823,2,1,1.762
3,95,1,1,2,0,1,0.924,1,1,1.0998
3,96,2,2,1,0,2,1.0178,1,1,0.8736
3,97,2,1,2,0,1,1.0209,1,1,0.7487
3,98,2,2,2,1,2,1.0027,2,2,0.9225
3,99,2,2,1,0,2,0.9883,2,2,2.4441
3,100,2,1,2,0,1,0.8236,2,2,0.6154
3,101,1,1,2,0,1,0.9466,1,1,0.6744
3,102,1,2,1,0,2,0.8828,2,2,0.5466
3,103,2,1,1,1,1,0.8845,2,2,1.3802
3,104,2,2,1,0,2,0.9989,2,2,0.7907
3,105,1,1,2,0,1,0.8697,2,2,0.6615
3,106,2,2,1,0,2,0.8346,1,1,1.2024
3,107,1,1,1,1,1,0.7533,2,2,0.6091
3,108,2,1,1,1,1,0.6961,1,1,0.7439
3,109,2,2,1,0,2,1.1899,2,2,1.0457
3,110,1,1,2,0,1,0.9534,1,1,0.4892
3,111,2,2,2,1,2,1.211,1,1,1.5148
3,112,1,1,2,0,1,0.6201,2,2,1.1799
3,113,1,1,2,0,1,1.0625,1,1,0.6623
3,114,1,1,1,1,1,0.8707,2,2,0.5985
3,115,1,1,2,0,1,0.6855,2,2,0.4773
3,116,1,1,2,0,1,0.49,2,2,0.5378
3,117,1,2,2,1,2,1.1316,2,1,1.1794
3,118,1,1,1,1,1,0.5979,1,1,0.5177
3,119,2,1,2,0,1,0.6231,2,2,1.0548
3,120,2,2,2,1,2,1.0787,2,1,0.8065
3,121,2,1,2,0,1,1.2415,1,1,0.7133
3,122,1,2,1,0,2,0.8864,1,1,0.5502
3,123,2,2,2,1,2,1.2721,1,1,0.8718
3,124,2,1,1,1,1,0.7691,1,1,0.625
3,125,2,1,2,0,1,0.6766,1,1,0.7244
3,126,1,2,2,1,2,1.194,1,1,0.4738
3,127,1,2,2,1,7,7,2,2,1.4545
3,128,2,1,1,1,1,0.996,1,1,0.5958
3,129,1,1,2,0,1,1.7753,2,2,1.119
3,130,1,2,2,1,2,1.0083,1,1,0.6721
3,131,1,2,1,0,2,1.0085,1,1,0.4803
3,132,1,1,1,1,1,1.1448,1,1,0.6165
3,133,2,2,2,1,2,1.2678,2,1,1.3156
3,134,1,1,2,0,1,0.9887,1,1,0.5244
3,135,2,2,2,1,2,1.1418,2,2,1.2536
3,136,2,1,1,1,1,1.5777,2,2,1.2415
3,137,2,2,2,1,2,1.1294,1,2,1.2411
3,138,1,1,2,0,1,0.845,2,2,1.1488
3,139,2,2,2,1,2,1.1308,1,2,0.7946
3,140,2,2,2,1,2,0.9736,2,2,0.6374
3,141,2,2,1,0,2,1.0731,1,2,0.8649
3,142,2,2,1,0,2,0.9211,2,2,0.7768
3,143,1,1,1,1,1,0.8154,1,1,0.8632
3,144,1,2,1,0,2,0.8193,1,1,0.6111
3,145,1,2,2,1,2,0.8784,1,1,0.6701
3,146,2,1,1,1,1,0.6866,1,1,0.6703
3,147,1,2,1,0,2,0.6867,2,2,0.8625
3,148,1,2,1,0,2,0.8069,1,1,0.4707
3,149,2,1,1,1,1,0.8034,1,2,0.9151
3,150,2,1,2,0,1,1.1045,2,2,0.7043
3,151,2,1,1,1,1,1.5174,1,1,1.0532
3,152,1,2,2,1,2,0.7571,2,2,0.5489
3,153,1,2,1,0,2,1.0787,1,1,0.7425
3,154,2,2,2,1,2,0.8163,1,1,0.9281
3,155,2,1,2,0,1,0.7496,1,2,1.4374
3,156,2,1,1,1,1,0.9171,1,1,1.0288
3,157,1,2,2,1,2,1.0123,1,1,1.1881
3,158,2,1,2,0,1,0.6228,1,1,0.6706
3,159,2,2,2,1,2,0.832,1,1,1.0078
3,160,2,1,1,1,1,0.6829,1,1,1.2427
3,161,1,2,2,1,2,0.5815,2,2,0.5013
3,162,1,2,1,0,2,0.7634,1,1,0.4911
3,163,2,2,2,1,2,0.6841,1,1,0.6679
3,164,2,1,1,1,1,0.952,1,1,0.6798
3,165,2,2,1,0,2,1.0802,2,1,0.808
3,166,1,1,2,0,1,0.859,1,1,0.5228
3,167,1,1,1,1,1,0.6281,2,2,1.1239
3,168,1,2,2,1,2,1.7172,1,1,0.613
3,169,2,1,1,1,1,0.6883,2,2,0.736
3,170,2,2,2,1,2,0.6701,2,1,0.9099
3,171,1,2,1,0,2,1.111,2,1,0.9028
3,172,2,2,1,0,2,0.7839,2,2,1.0877
3,173,2,1,2,0,1,0.6165,2,2,0.8563
3,174,2,1,1,1,1,0.8125,2,2,0.7322
3,175,2,1,1,1,1,0.6663,2,2,0.7781
3,176,1,2,2,1,2,0.6886,1,1,0.5444
3,177,2,1,2,0,1,0.7425,1,1,0.5982
3,178,1,1,2,0,1,0.697,1,1,1.0008
3,179,1,1,2,0,1,0.5598,1,1,0.6715
3,180,2,1,2,0,1,0.688,1,1,0.7997
3,181,1,2,2,1,2,0.8147,1,1,0.4785
3,182,1,1,2,0,1,0.5839,2,2,0.7597
3,183,2,1,1,1,1,0.618,2,2,0.6657
3,184,2,1,2,0,1,0.6182,2,1,1.1139
3,185,1,2,1,0,2,0.7767,2,2,0.6324
3,186,2,1,2,0,1,0.7482,2,2,0.9879
3,187,1,2,1,0,1,0.6382,2,2,0.5273
3,188,1,2,1,0,2,0.9696,1,1,1.2094
3,189,1,2,1,0,2,0.6963,2,2,0.5521
3,190,1,2,1,0,7,7,2,2,0.7582
3,191,1,2,2,1,2,0.6283,1,1,0.5481
3,192,1,1,1,1,1,1.3979,2,2,0.7417
4,1,2,1,1,1,1,0.7143,1,1,0.9541
4,2,1,2,1,0,2,0.5977,1,2,0.7735
4,3,2,2,1,0,2,0.6678,1,1,0.5236
4,4,1,1,2,0,1,0.6577,2,2,0.6415
4,5,1,2,2,1,2,0.6292,1,1,0.5489
4,6,2,1,2,0,1,0.5669,2,1,1.5106
4,7,2,1,2,0,1,0.7394,1,1,1.0432
4,8,1,1,1,1,1,0.5028,1,1,0.6146
4,9,2,1,2,0,1,0.4339,1,1,0.6736
4,10,2,1,1,1,1,0.6261,1,1,0.8658
4,11,2,2,1,0,2,0.694,2,2,0.7418
4,12,1,2,1,0,2,0.9436,1,1,0.5434
4,13,1,2,2,1,2,0.5612,2,2,0.545
4,14,1,2,1,0,2,0.6269,2,2,0.4826
4,15,1,2,2,1,2,0.5593,1,1,0.4151
4,16,2,2,1,0,2,0.6263,2,1,0.5461
4,17,1,2,2,1,2,0.6,2,2,1.0958
4,18,2,1,1,1,1,0.6886,2,1,0.8004
4,19,2,1,1,1,1,0.6594,1,1,0.3872
4,20,1,2,2,1,2,0.558,1,1,0.5418
4,21,2,2,2,1,2,0.5243,2,2,0.6361
4,22,1,2,2,1,2,0.548,1,1,0.4038
4,23,2,2,2,1,2,0.6151,1,2,0.7269
4,24,2,1,1,1,1,0.4762,1,1,0.396
4,25,2,2,2,1,2,0.5838,2,1,1.3355
4,26,2,1,1,1,1,0.6651,1,1,0.6488
4,27,1,1,1,1,1,0.5777,1,1,0.4335
4,28,2,2,2,1,2,0.569,1,1,0.4888
4,29,2,1,2,0,1,0.6295,1,1,0.3573
4,30,2,2,1,0,2,0.7553,1,1,0.5471
4,31,1,1,1,1,1,0.6812,2,2,0.601
4,32,2,1,2,0,1,0.624,2,2,1.1198
4,33,1,1,1,1,1,0.4529,1,1,0.3727
4,34,2,2,1,0,2,0.759,1,1,0.6788
4,35,2,2,2,1,2,0.5032,2,2,0.615
4,36,2,2,1,0,2,0.5792,2,2,1.1389
4,37,2,1,2,0,1,0.7487,1,1,0.7965
4,38,1,2,2,1,2,0.6195,1,1,0.6033
4,39,1,2,2,1,2,0.5623,1,1,0.4181
4,40,2,2,1,0,2,0.5653,2,2,0.8051
4,41,1,2,1,0,2,0.5641,2,2,0.6119
4,42,2,2,1,0,2,0.5591,1,1,0.7349
4,43,1,1,2,0,1,0.6049,1,1,0.3968
4,44,2,2,1,0,2,0.4918,1,1,0.5396
4,45,2,1,1,1,1,0.6096,2,1,0.6574
4,46,2,2,1,0,2,0.5414,2,1,0.7172
4,47,2,2,2,1,2,0.6586,1,1,0.7703
4,48,1,2,2,1,2,0.5006,1,1,0.8684
4,49,1,1,2,0,1,0.6325,1,1,1.3843
4,50,1,1,2,0,1,0.683,1,1,0.4108
4,51,2,1,2,0,1,0.6861,1,1,0.4778
4,52,2,1,2,0,1,0.6185,2,1,0.6023
4,53,1,1,1,1,1,0.562,2,2,0.6098
4,54,2,1,2,0,1,0.5688,2,1,0.7446
4,55,1,2,2,1,2,0.8545,2,2,0.5182
4,56,2,2,1,0,2,0.6876,2,1,1.4394
4,57,2,2,1,0,2,0.6799,2,1,0.5997
4,58,2,2,2,1,2,0.5308,2,2,1.2186
4,59,2,1,1,1,1,0.7107,2,2,0.8224
4,60,1,1,1,1,1,0.6219,2,2,0.6057
4,61,1,2,2,1,2,0.5647,2,2,0.4845
4,62,1,1,1,1,1,0.7532,1,2,0.417
4,63,2,1,1,1,1,0.5362,2,2,0.776
4,64,2,2,1,0,2,0.7387,1,1,0.6585
4,65,1,1,2,0,1,0.7106,1,2,0.6944
4,66,2,2,2,1,7,7,1,1,1.784
4,67,2,1,1,1,1,0.6512,2,1,0.5069
4,68,1,1,1,1,1,0.7057,1,1,0.4335
4,69,1,1,2,0,1,0.697,2,7,7
4,70,2,1,2,0,1,0.5273,1,1,0.4471
4,71,1,2,1,0,7,7,1,1,0.6951
4,72,1,2,2,1,1,0.5482,2,2,1.6834
4,73,1,2,2,1,2,0.7402,2,2,0.532
4,74,1,2,1,0,2,0.6778,2,2,0.5336
4,75,2,2,1,0,7,7,1,1,0.9722
4,76,2,1,2,0,1,0.6305,1,1,0.5502
4,77,2,1,1,1,1,0.6961,1,1,0.4239
4,78,2,1,2,0,1,0.6874,1,1,0.6712
4,79,2,2,2,1,7,7,2,1,2.2838
4,80,1,2,1,0,2,0.6222,2,2,0.542
4,81,2,2,1,0,2,0.612,2,2,0.5958
4,82,1,2,1,0,2,0.6071,1,1,0.6548
4,83,1,1,1,1,1,0.6595,1,1,0.5793
4,84,1,2,1,0,2,0.6141,2,1,0.2778
4,85,2,1,1,1,1,0.6023,2,2,0.5861
4,86,2,2,1,0,2,0.6327,1,1,0.3604
4,87,1,2,1,0,2,1.7067,2,1,0.7945
4,88,1,2,1,0,2,0.5895,2,2,0.5733
4,89,1,1,1,1,1,0.5559,2,2,0.5397
4,90,1,2,1,0,2,0.4935,2,2,0.7333
4,91,2,2,2,1,2,0.6438,1,1,0.3075
4,92,2,1,1,1,1,0.6887,1,1,0.8005
4,93,2,2,2,1,2,0.5595,2,2,0.7353
4,94,1,1,2,0,1,0.6928,1,1,0.4847
4,95,1,2,2,1,2,0.6253,1,1,0.4171
4,96,2,2,1,0,2,0.6453,2,1,0.5011
4,97,2,2,1,0,2,0.6392,2,2,0.6869
4,98,2,2,1,0,2,0.6158,2,2,0.7275
4,99,1,2,1,0,2,0.5505,2,1,0.6623
4,100,1,2,1,0,2,0.4705,1,1,0.5823
4,101,1,1,2,0,1,0.6928,2,2,0.4846
4,102,1,1,2,0,1,0.6775,2,2,0.5333
4,103,1,1,1,1,1,0.6269,2,2,0.8027
4,104,1,1,1,1,1,0.6139,1,2,0.4697
4,105,2,2,1,0,2,0.6581,1,1,0.8339
4,106,1,2,2,1,2,0.5864,1,1,0.5061
4,107,1,1,1,1,1,0.6232,1,2,0.543
4,108,1,1,2,0,1,0.5969,2,2,0.5167
4,109,1,2,1,0,2,0.6221,2,1,1.3738
4,110,2,1,1,1,1,0.6041,1,1,0.7798
4,111,1,2,2,1,2,0.6316,2,2,1.3193
4,112,2,2,2,1,2,0.6769,2,1,0.6606
4,113,1,2,2,1,2,0.5211,2,2,0.5689
4,114,2,1,2,0,1,0.6154,1,1,0.9192
4,115,1,2,1,0,2,0.5487,2,2,0.5325
4,116,1,1,1,1,1,0.6144,1,2,0.5341
4,117,1,1,2,0,1,0.5527,1,1,0.4085
4,118,2,2,2,1,2,0.5035,1,1,0.5513
4,119,1,1,1,1,1,0.6331,2,2,0.9369
4,120,1,2,1,0,2,0.6305,1,1,0.8062
4,121,2,2,2,1,2,0.5652,2,2,0.741
4,122,2,1,1,1,1,0.6869,1,1,0.9906
4,123,2,2,1,0,2,0.6254,1,1,0.5451
4,124,1,1,2,0,1,0.6152,2,2,0.599
4,125,1,1,2,0,1,0.6103,2,2,0.53
4,126,2,2,2,1,2,0.4839,2,2,0.8516
4,127,1,1,1,1,1,0.6158,1,1,0.7276
4,128,2,2,2,1,2,0.4932,2,1,0.413
4,129,1,2,1,0,2,0.5863,1,1,0.3141
4,130,1,1,2,0,1,0.6077,1,1,0.8475
4,131,1,2,2,1,2,0.5594,2,2,0.6712
4,132,2,2,2,1,7,7,1,1,0.6956
4,133,1,2,1,0,1,0.6245,1,1,0.3334
4,134,1,2,2,1,2,0.6152,1,1,0.407
4,135,2,2,2,1,2,0.6301,1,1,0.8698
4,136,1,2,1,0,2,0.7385,1,1,0.8503
4,137,1,2,2,1,2,0.5504,2,2,0.6622
4,138,1,2,2,1,2,0.5506,2,2,0.5344
4,139,2,1,2,0,1,0.628,2,1,1.0598
4,140,2,2,2,1,2,0.6246,2,1,0.7364
4,141,2,1,1,1,1,0.6661,2,1,0.8418
4,142,1,2,2,1,2,0.6015,2,2,0.6493
4,143,2,2,2,1,2,0.5612,1,2,0.545
4,144,1,2,1,0,2,0.5989,1,1,0.3907
4,145,1,1,1,1,1,0.6254,2,2,0.7372
4,146,2,1,2,0,1,0.6948,1,1,0.7426
4,147,1,2,1,0,2,0.5487,2,2,0.5325
4,148,1,1,2,0,1,0.6143,2,2,0.4701
4,149,1,1,1,1,1,0.663,2,2,0.7747
4,150,2,1,1,1,1,0.586,1,1,0.5057
4,151,2,1,2,0,1,0.6634,1,1,0.3912
4,152,2,2,1,0,2,0.6429,1,1,1.2027
4,153,2,1,1,1,1,0.9456,2,1,0.6094
4,154,2,2,1,0,2,0.6684,1,1,0.7162
4,155,1,2,2,1,2,0.5693,1,1,0.4891
4,156,2,1,1,1,1,0.5018,2,2,0.6775
4,157,2,1,2,0,1,0.566,2,2,0.6138
4,158,1,1,1,1,1,0.5492,1,1,0.405
4,159,1,1,1,1,1,0.5523,2,2,0.5361
4,160,2,1,1,1,1,0.5539,2,2,0.7297
4,161,2,2,2,1,2,0.6561,2,1,1.2799
4,162,1,1,2,0,1,0.7021,2,2,0.6219
4,163,2,2,2,1,2,0.6214,1,1,0.6051
4,164,2,2,2,1,2,0.5642,1,1,0.6759
4,165,1,1,2,0,1,0.6283,2,2,0.4841
4,166,2,1,1,1,1,0.6888,2,1,0.6086
4,167,1,1,2,0,1,0.6676,1,2,0.4594
4,168,1,2,2,1,2,0.5956,1,1,0.5794
4,169,2,1,2,0,1,0.626,2,1,0.7377
4,170,1,1,1,1,1,0.5563,2,2,0.604
4,171,1,2,1,0,2,0.6153,1,1,0.3431
4,172,2,2,1,0,2,0.6132,2,1,1.0449
4,173,1,1,2,0,1,0.6569,1,2,0.4486
4,174,1,1,2,0,1,0.6606,1,1,0.8364
4,175,2,1,1,1,1,0.6763,1,1,0.7881
4,176,2,1,2,0,1,0.5589,2,1,0.6066
4,177,1,1,2,0,1,0.6017,2,2,0.4575
4,178,2,2,2,1,2,0.6334,1,2,0.7452
4,179,2,1,1,1,1,0.471,2,2,0.5188
4,180,2,1,1,1,1,0.6242,1,1,0.352
4,181,2,1,2,0,1,0.5581,2,2,0.5419
4,182,1,1,2,0,1,0.5479,1,1,0.5317
4,183,1,1,2,0,1,0.5496,2,2,0.5974
4,184,2,1,2,0,1,0.6204,2,2,0.5401
4,185,2,1,2,0,1,0.5344,1,1,0.6462
4,186,1,1,1,1,1,0.5464,2,2,0.4662
4,187,2,1,2,0,1,0.5024,2,2,0.5502
4,188,1,1,2,0,1,0.4805,1,1,0.5923
4,189,1,1,1,1,1,0.5631,2,1,0.4828
4,190,1,2,1,0,2,0.5955,1,1,0.6433
4,191,2,1,2,0,1,0.4913,2,2,0.539
4,192,1,1,1,1,1,0.5686,1,1,0.6804
5,1,2,1,2,0,1,0.6369,2,2,1.0687
5,2,1,2,2,1,2,0.6328,1,1,0.7446
5,3,2,1,2,0,1,0.6904,1,1,0.9942
5,4,2,2,1,0,2,0.8092,2,2,0.857
5,5,2,1,2,0,1,0.8131,2,2,0.8609
5,6,1,1,2,0,1,0.6891,1,1,0.7369
5,7,1,1,1,1,1,0.7232,1,1,0.8349
5,8,1,2,2,1,2,0.6867,1,1,0.6704
5,9,2,1,2,0,1,0.6868,1,1,0.9266
5,10,1,2,1,0,2,0.6959,2,2,0.5517
5,11,2,2,1,0,2,0.6975,2,2,0.8733
5,12,1,2,2,1,2,0.6257,1,1,0.7375
5,13,1,1,2,0,1,0.7591,2,2,0.6149
5,14,1,1,2,0,1,0.6261,1,1,0.5459
5,15,2,2,1,0,2,0.6917,2,2,0.7395
5,16,2,2,1,0,2,0.6971,1,1,0.6809
5,17,1,1,2,0,1,0.8253,2,2,0.617
5,18,2,1,1,1,1,0.8203,2,2,1.0601
5,19,1,2,2,1,2,0.6242,2,2,0.608
5,20,1,1,2,0,1,0.631,2,2,0.5508
5,21,2,1,2,0,1,0.6967,1,1,0.8084
5,22,1,2,2,1,2,0.7594,2,2,0.5512
5,23,2,1,1,1,1,0.8773,2,2,0.8611
5,24,1,1,1,1,1,0.4737,2,2,0.9695
5,25,2,1,2,0,1,0.7727,2,2,0.7565
5,26,1,1,1,1,1,0.7428,2,2,0.5345
5,27,2,2,1,0,2,0.7444,2,2,0.6642
5,28,1,2,1,0,2,0.6283,2,2,0.4841
5,29,2,2,1,0,2,0.8168,1,1,0.6086
5,30,2,1,1,1,1,0.8876,1,1,0.8714
5,31,2,1,1,1,1,0.8798,1,1,1.2475
5,32,1,2,1,0,2,0.8154,1,2,0.7992
5,33,2,2,2,1,2,0.861,2,2,1.1007
5,34,1,2,2,1,2,0.8216,1,1,0.4853
5,35,1,1,1,1,1,0.69,2,2,0.6098
5,36,1,1,1,1,1,0.5688,1,1,0.4246
5,37,1,2,2,1,2,0.6123,2,2,0.4682
5,38,2,2,1,0,2,0.7486,1,1,0.7323
5,39,1,1,2,0,1,0.7826,1,1,0.6384
5,40,2,2,1,0,2,0.6901,1,2,0.8659
5,41,2,1,2,0,1,0.7941,1,1,0.6499
5,42,1,2,2,1,2,0.5618,1,1,0.7376
5,43,1,2,1,0,2,0.8232,2,2,0.743
5,44,1,1,1,1,1,0.7411,2,2,0.5968
5,45,1,2,1,0,2,0.6839,1,1,1.1796
5,46,2,2,1,0,2,0.6143,1,1,0.7901
5,47,1,2,2,1,2,0.6013,2,2,0.4571
5,48,2,1,2,0,1,0.6331,1,1,0.7448
5,49,1,2,1,0,2,0.6266,2,2,0.9304
5,50,2,1,1,1,1,0.688,1,1,1.0558
5,51,1,1,1,1,1,0.6839,1,1,0.5397
5,52,2,1,2,0,1,0.6384,1,1,0.6223
5,53,2,1,2,0,1,0.738,1,2,1.4898
5,54,1,2,2,1,2,0.7473,1,1,0.4111
5,55,1,1,2,0,2,0.7503,2,2,0.9176
5,56,2,2,2,1,2,0.7509,1,1,0.6707
5,57,1,2,1,0,2,0.6871,2,2,0.6708
5,58,2,1,2,0,1,0.6755,1,1,0.7233
5,59,2,1,1,1,1,0.7096,2,2,1.0134
5,60,1,1,1,1,1,0.7408,1,1,0.4046
5,61,2,2,2,1,2,0.6916,1,1,0.8674
5,62,1,1,1,1,1,0.6956,2,2,0.6793
5,63,2,2,2,1,2,0.5677,2,2,0.8715
5,64,1,1,1,1,1,0.5599,1,1,0.6717
5,65,1,2,2,1,2,0.5848,1,1,0.5045
5,66,2,2,2,1,2,0.6504,2,2,0.5701
5,67,1,1,1,1,1,0.7329,2,2,0.6527
5,68,1,1,1,1,1,0.5816,2,2,0.4374
5,69,1,2,1,0,2,0.6892,1,1,0.6089
5,70,1,1,1,1,1,0.5966,1,1,0.5804
5,71,1,2,1,0,2,0.7549,2,2,0.6106
5,72,2,1,1,1,1,0.686,2,2,0.9257
5,73,2,1,1,1,1,0.8753,1,2,0.9231
5,74,1,2,2,1,2,0.6814,1,1,0.4091
5,75,2,2,2,1,2,0.6844,2,2,1.8842
5,76,1,1,2,0,1,0.7409,1,1,0.4687
5,77,2,1,1,1,1,0.6852,1,1,0.605
5,78,2,2,1,0,2,0.6279,2,2,0.7397
5,79,1,1,2,0,1,0.7613,1,1,0.6172
5,80,2,2,1,0,2,0.6923,1,1,0.8041
5,81,2,2,2,1,2,0.6676,1,2,1.3554
5,82,2,2,1,0,2,0.6143,2,2,0.854
5,83,2,1,2,0,1,0.6587,2,2,0.9625
5,84,2,1,1,1,1,0.6325,1,1,1.5123
5,85,2,1,2,0,1,0.8096,2,2,0.7934
5,86,2,2,1,0,2,0.6921,1,1,0.8039
5,87,1,1,1,1,1,0.5629,2,2,0.5467
5,88,1,1,2,0,1,0.7565,2,2,0.6123
5,89,1,2,1,0,2,0.6758,1,1,0.5956
5,90,1,2,1,0,2,0.6943,1,1,0.6781
5,91,2,2,1,0,2,0.863,1,1,0.7828
5,92,1,2,1,0,2,0.7573,1,1,0.5491
5,93,2,2,1,0,2,0.6949,2,2,0.8067
5,94,1,2,2,1,2,0.7459,2,2,0.5377
5,95,1,1,1,1,1,0.6953,1,2,0.8071
5,96,2,2,1,0,2,0.683,2,2,1.0508
5,97,1,2,1,0,2,0.7763,1,1,0.5681
5,98,2,1,2,0,1,0.7831,2,2,0.7669
5,99,1,1,2,0,1,0.7466,2,2,0.6663
5,100,2,1,2,0,1,0.6945,2,2,0.6784
5,101,1,1,2,0,1,1.0147,2,2,0.5505
5,102,1,1,2,0,1,0.7604,1,1,0.8081
5,103,2,1,1,1,1,0.6311,2,2,0.7429
5,104,2,2,2,1,2,0.805,2,2,0.6608
5,105,1,2,2,1,2,0.8052,1,1,0.725
5,106,1,1,2,0,1,0.8105,2,2,0.7303
5,107,1,1,1,1,1,0.6761,2,2,0.8519
5,108,2,2,2,1,2,0.6918,1,1,0.7396
5,109,1,2,1,0,2,0.7612,2,2,0.553
5,110,1,1,2,0,1,0.6871,2,2,0.6709
5,111,2,1,1,1,1,0.8035,1,1,0.8513
5,112,1,2,2,1,2,0.7081,1,1,0.4999
5,113,2,2,1,0,2,0.6171,1,1,0.6008
5,114,2,2,1,0,2,0.6121,1,1,1.7479
5,115,1,2,2,1,2,0.6936,1,1,0.5494
5,116,1,2,2,1,2,0.6834,2,2,0.6672
5,117,1,2,2,1,2,0.6836,2,2,0.7314
5,118,1,2,1,0,2,0.6773,1,1,0.533
5,119,1,2,2,1,2,0.7546,1,1,0.4824
5,120,1,1,2,0,1,0.6872,1,1,0.6069
5,121,2,2,2,1,2,0.8741,1,1,0.5379
5,122,2,1,1,1,1,0.6955,1,1,0.7433
5,123,2,2,2,1,2,0.6891,2,2,0.8649
5,124,1,2,2,1,2,0.6931,2,2,0.5488
5,125,1,1,1,1,1,0.6829,1,1,0.5387
5,126,2,2,1,0,2,0.7132,1,1,0.889
5,127,2,1,2,0,1,0.6819,1,1,0.9217
5,128,1,1,1,1,1,0.6674,2,2,0.7152
5,129,1,1,2,0,1,0.7285,1,1,0.5202
5,130,1,1,2,0,1,0.7235,2,2,0.5793
5,131,2,1,1,1,1,0.6258,1,1,0.8016
5,132,1,2,1,0,2,0.6886,2,2,0.9284
5,133,1,1,1,1,1,0.7499,2,2,0.5417
5,134,2,2,1,0,2,0.6875,1,1,0.7993
5,135,1,1,1,1,1,0.6223,1,1,0.6061
5,136,2,2,1,0,2,0.6931,2,2,1.1249
5,137,2,2,2,1,2,0.7465,2,2,0.8583
5,138,1,1,1,1,1,0.6746,1,1,0.6584
5,139,2,1,2,0,1,0.7388,2,2,0.7866
5,140,1,2,2,1,2,0.7023,2,2,0.5581
5,141,1,1,1,1,1,0.8084,1,1,0.4722
5,142,1,2,1,0,2,0.6246,2,2,0.5444
5,143,2,1,1,1,1,0.6903,2,2,0.61
5,144,2,2,1,0,2,0.697,2,2,1.3208
5,145,1,1,2,0,1,0.6901,1,1,0.7379
5,146,2,1,1,1,1,0.6315,2,2,0.8073
5,147,1,2,1,0,2,1.0782,1,1,0.742
5,148,2,2,2,1,2,0.9961,1,1,0.6598
5,149,1,1,2,0,1,0.897,1,1,0.4967
5,150,1,2,1,0,2,0.7419,1,1,0.6617
5,151,2,1,1,1,1,0.7421,1,1,0.5339
5,152,1,2,1,0,2,0.7437,1,1,0.4715
5,153,2,1,2,0,1,0.6239,2,2,0.7357
5,154,2,2,2,1,2,0.8213,1,2,0.9331
5,155,2,2,2,1,2,0.6626,2,2,0.7744
5,156,2,1,1,1,1,0.6327,1,1,0.8725
5,157,1,1,2,0,1,0.6889,2,2,0.6087
5,158,2,1,1,1,1,0.6317,2,2,0.8075
5,159,2,1,2,0,1,0.6187,1,1,0.7945
5,160,1,2,2,1,2,0.8095,2,2,0.7293
5,161,2,2,1,0,2,0.63,2,2,0.6778
5,162,1,1,2,0,1,0.737,1,1,0.6567
5,163,2,1,2,0,1,0.6209,1,1,1.0527
5,164,1,2,1,0,2,0.6808,1,1,0.5366
5,165,2,1,1,1,1,0.6942,2,2,0.678
5,166,2,1,2,0,1,0.6944,2,2,0.8062
5,167,1,2,1,0,2,0.6932,2,2,0.549
5,168,2,2,2,1,2,0.6948,2,2,0.8706
5,169,1,2,2,1,2,0.7511,2,2,0.4788
5,170,2,1,2,0,1,0.6952,2,2,0.871
5,171,1,2,1,0,2,0.8677,2,2,0.9154
5,172,2,1,2,0,1,0.7134,2,2,0.5692
5,173,2,2,2,1,2,0.7438,1,1,0.7916
5,174,2,2,2,1,2,0.6145,2,2,0.7903
5,175,2,2,2,1,2,0.6133,2,2,0.6611
5,176,2,2,2,1,2,0.6775,1,1,1.1733
5,177,2,1,1,1,1,0.7595,2,2,0.7433
5,178,1,2,1,0,2,0.7531,2,2,0.4809
5,179,2,2,2,1,2,0.5811,1,1,0.8209
5,180,2,1,1,1,1,0.9521,2,2,0.6159
5,181,2,2,2,1,2,0.4991,1,1,0.9309
5,182,1,1,2,0,1,0.6767,2,2,0.6605
5,183,2,2,2,1,2,0.6129,1,1,0.9167
5,184,2,1,1,1,2,0.4183,1,1,1.6829
5,185,2,1,2,0,1,0.7684,1,1,0.6882
5,186,1,1,1,1,1,0.6171,1,1,0.5369
5,187,1,1,2,0,1,0.6709,1,1,0.4627
5,188,2,2,1,0,2,0.947,2,2,0.7387
5,189,2,2,2,1,2,0.7603,2,2,1.0641
5,190,1,1,1,1,1,0.6282,2,2,0.548
5,191,2,1,1,1,1,0.6298,2,2,1.2536
5,192,1,2,2,1,2,0.6935,2,2,0.4853
6,1,1,2,1,0,2,0.7767,1,1,0.3765
6,2,2,1,2,0,1,0.623,2,2,0.7988
6,3,2,1,1,1,1,0.6623,1,1,0.7741
6,4,1,2,1,0,2,0.7603,2,1,0.4881
6,5,2,1,1,1,1,0.653,1,1,0.5728
6,6,1,1,1,1,1,0.6311,2,2,0.4869
6,7,1,2,1,0,1,0.6276,1,1,0.4645
6,8,1,2,2,1,2,0.6926,2,2,0.4844
6,9,2,2,2,1,2,0.6251,1,1,0.8009
6,10,1,2,2,1,2,0.6239,1,1,0.5437
6,11,2,1,1,1,1,0.8175,2,2,0.6733
6,12,1,2,1,0,2,0.8177,1,1,0.6735
6,13,2,2,2,1,2,0.5501,2,1,0.8539
6,14,2,1,1,1,1,0.7298,1,1,0.5857
6,15,1,2,2,1,2,0.6962,2,2,0.808
6,16,2,2,2,1,2,0.439,2,2,0.6787
6,17,1,2,1,0,2,1.3351,2,1,0.8709
6,18,1,1,2,0,1,0.7234,2,2,0.4511
6,19,2,1,2,0,1,0.7551,1,1,0.6109
6,20,1,1,1,1,1,0.6861,1,1,0.6699
6,21,1,1,1,1,1,0.7503,1,1,0.4781
6,22,2,1,1,1,1,0.6188,1,1,0.7945
6,23,2,2,1,0,2,0.8265,1,2,0.8102
6,24,1,1,2,0,1,0.7215,1,1,0.5773
6,25,1,2,1,0,2,0.7401,2,2,0.5958
6,26,1,1,2,0,1,0.7468,1,1,0.4106
6,27,1,2,1,0,2,0.5748,2,2,0.4306
6,28,2,1,2,0,1,0.7581,2,2,0.5499
6,29,1,1,2,0,1,0.8877,1,1,0.6155
6,30,1,1,1,1,1,0.5628,1,1,0.4185
6,31,1,2,2,1,2,0.746,2,2,0.4738
6,32,1,2,1,0,2,0.7425,1,1,0.8543
6,33,1,2,2,1,2,0.7368,1,1,0.4646
6,34,2,2,1,0,2,0.7568,2,2,0.8046
6,35,1,1,2,0,1,0.7556,2,2,0.6114
6,36,2,2,2,1,2,0.7506,2,2,0.5424
6,37,2,1,2,0,1,0.7405,1,1,0.4683
6,38,2,2,2,1,2,0.5567,2,2,0.4765
6,39,2,2,1,0,2,0.8731,1,1,0.6009
6,40,2,1,2,0,1,0.7402,2,2,0.596
6,41,1,1,2,0,1,0.7587,1,2,0.4865
6,42,1,1,2,0,1,0.5352,1,1,0.455
6,43,1,2,2,1,2,0.631,2,2,0.4867
6,44,2,2,1,0,2,1.0636,1,1,0.6634
6,45,1,1,1,1,1,0.7085,2,2,0.5004
6,46,1,1,2,0,1,0.6175,1,1,0.4092
6,47,2,1,1,1,1,0.6205,1,1,0.5403
6,48,1,1,1,1,1,0.5581,2,2,0.6699
6,49,2,1,2,0,1,0.5583,1,1,0.5421
6,50,1,1,2,0,1,0.6122,2,2,0.98
6,51,1,2,2,1,2,0.5507,2,2,0.5985
6,52,1,1,2,0,1,0.7782,2,2,0.506
6,53,1,1,2,0,1,0.6753,2,2,0.6591
6,54,2,2,2,1,2,0.8035,2,1,0.7873
6,55,1,2,2,1,2,0.7103,2,2,0.7581
6,56,2,1,1,1,1,0.6281,2,2,0.5479
6,57,1,1,2,0,1,0.5658,1,1,0.4856
6,58,2,1,2,0,1,0.5505,2,2,0.6623
6,59,1,1,1,1,1,0.6787,2,2,0.5344
6,60,2,1,2,0,1,0.4883,1,1,0.8561
6,61,1,2,1,0,2,0.7482,2,2,0.604
6,62,1,2,2,1,2,1.395,2,2,0.6108
6,63,1,2,2,1,2,0.7501,1,1,0.9259
6,64,2,1,2,0,1,0.6312,2,2,0.8069
6,65,2,2,2,1,2,0.774,2,1,0.6298
6,66,1,2,1,0,2,0.8309,2,2,0.4947
6,67,2,2,1,0,2,0.8325,2,1,0.5603
6,68,1,2,1,0,2,0.6988,2,2,0.4266
6,69,2,2,1,0,2,0.6901,2,1,0.6099
6,70,1,1,1,1,1,0.8492,2,2,0.577
6,71,2,1,1,1,1,0.4955,2,2,0.6073
6,72,2,2,1,0,2,0.5663,2,1,0.3581
6,73,1,1,2,0,1,0.4891,1,1,0.5369
6,74,1,2,2,1,2,1.1307,2,2,0.8586
6,75,2,2,2,1,2,0.6749,1,1,0.5307
6,76,1,1,2,0,1,0.6125,2,2,0.4043
6,77,2,1,2,0,1,0.5634,1,1,0.6751
6,78,2,2,1,0,2,0.5636,2,2,0.9953
6,79,2,1,2,0,1,0.6301,1,1,0.5498
6,80,2,1,2,0,1,0.6317,2,2,0.6155
6,81,2,1,1,1,1,0.6959,1,1,0.5517
6,82,2,2,1,0,2,0.5342,2,2,0.838
6,83,2,1,2,0,1,0.6661,1,1,1.0339
6,84,2,2,1,0,2,0.4936,1,1,0.4774
6,85,1,1,2,0,1,0.6298,2,2,0.5496
6,86,2,1,1,1,1,0.8874,1,1,0.8712
6,87,2,1,1,1,1,0.7516,2,2,0.6074
6,88,1,2,2,1,2,0.6944,1,1,0.4222
6,89,1,2,2,1,2,0.7262,1,1,0.7739
6,90,1,2,2,1,2,0.5565,1,1,0.8603
6,91,2,1,1,1,1,0.6126,1,1,0.5324
6,92,2,2,1,0,2,0.562,1,1,0.5458
6,93,2,1,1,1,1,0.7439,2,1,0.9837
6,94,2,1,2,0,1,0.6022,1,1,0.522
6,95,2,2,1,0,1,0.4876,1,1,0.9776
6,96,1,2,1,0,2,1.3804,1,1,0.9802
6,97,2,1,2,0,1,0.6283,1,1,0.4841
6,98,1,2,2,1,2,0.8219,2,1,1.2537
6,99,2,1,2,0,1,0.7178,1,2,0.7016
6,100,1,1,1,1,1,0.7305,1,1,0.4583
6,101,2,2,1,0,2,0.8785,1,1,0.4783
6,102,1,2,1,0,2,0.6947,2,2,0.4225
6,103,1,2,1,0,2,0.6743,1,2,0.658
6,104,1,1,1,1,1,0.7274,2,2,0.4552
6,105,1,1,2,0,1,0.8754,2,2,0.5391
6,106,1,1,1,1,1,0.621,1,1,0.4128
6,107,2,1,2,0,1,0.688,2,1,0.6078
6,108,1,1,2,0,1,0.6028,2,2,0.5866
6,109,1,2,1,0,2,0.8134,2,2,0.5412
6,110,2,2,1,0,2,0.6112,1,1,0.531
6,111,1,2,1,0,2,0.6129,1,1,0.8526
6,112,1,1,1,1,1,0.7735,1,1,0.5013
6,113,2,2,2,1,2,0.6824,2,2,1.1782
6,114,2,2,1,0,2,0.8049,2,1,0.7887
6,115,2,2,1,0,2,0.7117,1,1,0.6315
6,116,1,1,1,1,1,0.6715,2,1,1.5512
6,117,1,1,2,0,1,0.6572,1,1,0.449
6,118,2,2,2,1,2,0.8692,1,1,0.533
6,119,1,2,2,1,2,0.5626,1,1,0.4824
6,120,2,1,2,0,1,0.687,1,1,0.5428
6,121,2,2,2,1,1,0.6887,2,2,0.6587
6,122,1,2,2,1,2,1.0069,1,2,0.6707
6,123,2,1,1,1,1,0.6591,2,2,0.8989
6,124,1,2,1,0,2,0.744,2,2,0.4718
6,125,1,1,1,1,1,0.7691,1,1,0.9449
6,126,2,2,2,1,2,0.679,2,2,0.8547
6,127,2,2,1,0,2,0.8109,2,1,0.9227
6,128,2,2,1,0,2,1.1525,1,1,0.4963
6,129,1,1,2,0,1,0.776,2,1,0.7598
6,130,2,1,2,0,1,0.6659,2,1,0.9057
6,131,2,2,2,1,2,0.9148,2,1,0.3865
6,132,2,1,2,0,1,0.7331,2,1,0.5249
6,133,2,2,2,1,2,1.2423,1,1,0.7781
6,134,1,2,2,1,2,0.6886,2,2,0.6084
6,135,2,2,2,1,2,0.6954,1,1,0.5512
6,136,1,2,2,1,2,0.7492,1,1,0.669
6,137,1,1,1,1,1,0.8135,1,1,0.4772
6,138,2,2,1,0,2,0.9379,1,2,0.7937
6,139,1,1,1,1,1,0.7807,1,1,0.8924
6,140,2,2,2,1,2,0.6736,2,2,0.7213
6,141,2,1,2,0,7,7,2,7,7
6,142,2,1,1,1,1,0.7255,1,1,0.5813
6,143,2,2,1,0,2,0.8198,2,2,0.6116
6,144,1,2,1,0,2,0.8788,1,1,0.7346
6,145,2,1,1,1,1,0.8203,1,1,0.612
6,146,1,2,2,1,2,0.6872,1,1,0.415
6,147,2,1,2,0,1,0.7543,2,2,0.5461
6,148,2,2,2,1,2,0.7441,1,1,0.5999
6,149,2,2,2,1,2,0.8032,1,1,0.851
6,150,2,2,1,0,2,0.6791,1,1,0.5989
6,151,2,1,2,0,1,1.0582,1,1,0.5939
6,152,2,1,1,1,1,0.7097,2,2,0.5654
6,153,1,1,1,1,1,0.612,1,1,0.4677
6,154,2,2,2,1,2,0.6319,1,1,0.6158
6,155,2,1,1,1,1,0.7549,1,1,0.6108
6,156,1,2,1,0,2,0.75,2,2,0.5418
6,157,2,1,1,1,1,0.6876,2,1,0.8634
6,158,2,2,1,0,2,0.7798,2,2,0.5716
6,159,1,2,2,1,2,1.1588,2,2,0.6307
6,160,2,2,1,0,2,0.7463,2,1,0.6021
6,161,2,2,1,0,2,0.8163,2,1,0.608
6,162,2,1,1,1,1,0.7193,2,2,0.6391
6,163,1,1,1,1,1,0.743,1,2,0.4708
6,164,1,1,1,1,1,0.7924,1,1,0.5842
6,165,1,1,1,1,1,0.6308,2,1,0.5505
6,166,1,1,1,1,2,1.6284,2,2,1.0412
6,167,1,1,2,0,1,0.6929,1,1,0.5486
6,168,2,1,2,0,1,0.7585,2,2,0.5503
6,169,2,1,1,1,7,7,2,2,0.5761
6,170,2,2,2,1,7,7,1,1,0.5667
6,171,2,1,1,1,1,0.6132,2,2,0.5971
6,172,2,2,2,1,2,0.765,1,2,0.5568
6,173,1,1,1,1,1,0.6511,2,2,0.5709
6,174,2,2,2,1,2,0.8786,1,1,1.1824
6,175,1,1,2,0,1,0.6811,1,1,0.5369
6,176,1,2,1,0,2,0.7114,2,2,0.8872
6,177,1,1,2,0,1,0.6278,1,1,0.4836
6,178,1,2,1,0,2,0.6883,1,1,0.416
6,179,1,2,2,1,2,0.8193,2,2,0.5471
6,180,1,1,2,0,1,0.6929,2,2,1.1247
6,181,1,2,1,0,2,0.694,1,1,0.6138
6,182,1,2,2,1,2,0.625,1,1,0.5448
6,183,2,1,1,1,1,0.6436,2,7,7
6,184,1,2,1,0,2,1.1191,1,1,1.1669
6,185,2,2,2,1,2,1.2533,1,1,0.5331
6,186,1,1,1,1,1,0.615,2,2,0.5988
6,187,2,1,1,1,1,0.6269,1,1,0.6109
6,188,1,1,2,0,1,0.6441,2,2,0.4999
6,189,1,1,1,1,1,0.6288,2,2,0.5485
6,190,1,2,2,1,2,0.6304,1,1,0.5502
6,191,1,2,1,0,2,0.824,1,1,0.6158
6,192,2,2,2,1,2,0.691,2,1,0.6108
7,1,2,2,2,1,2,1.0171,1,1,0.617
7,2,1,1,2,0,1,1.0762,2,1,0.42
7,3,2,1,2,0,1,1.1035,2,2,1.7913
7,4,2,2,2,1,2,1.2019,2,2,1.0577
7,5,1,2,2,1,2,1.0345,1,1,1.0183
7,6,1,2,1,0,1,1.0135,2,1,0.9102
7,7,2,2,1,0,2,1.2392,2,2,1.1591
7,8,1,1,2,0,1,1.3331,1,1,0.6768
7,9,1,1,1,1,1,0.961,1,1,0.7528
7,10,2,2,1,0,2,1.0709,2,2,0.7986
7,11,1,1,2,0,1,1.8494,1,1,0.5532
7,12,1,1,1,1,1,0.9432,2,2,0.543
7,13,1,2,1,0,2,1.0089,1,1,0.5446
7,14,2,1,2,0,1,1.0105,2,1,0.7383
7,15,1,1,1,1,1,1.1159,1,1,0.4597
7,16,2,2,1,0,2,1.1998,1,1,0.7996
7,17,2,1,1,1,1,0.9308,2,2,0.5306
7,18,2,2,2,1,2,1.0722,2,1,0.736
7,19,1,1,1,1,1,1.2416,1,1,0.5855
7,20,1,1,2,0,1,1.1439,1,1,0.5518
7,21,1,2,1,0,2,0.9587,1,1,0.5585
7,22,1,1,1,1,1,0.8611,1,1,0.5888
7,23,2,1,2,0,1,1.1526,2,1,0.6244
7,24,2,2,1,0,2,1.1601,1,1,0.5679
7,25,1,2,1,0,2,1.2022,1,1,0.5459
7,26,1,1,1,1,1,1.0758,1,1,0.4196
7,27,1,2,1,0,2,1.3348,1,1,0.4866
7,28,1,1,2,0,1,1.1393,1,1,0.6751
7,29,2,1,1,1,1,1.0755,1,2,0.6752
7,30,2,2,1,0,2,1.3089,2,2,0.8446
7,31,1,1,2,0,1,1.0803,2,2,0.6801
7,32,2,2,2,1,1,1.2372,2,1,0.7183
7,33,2,2,1,0,2,1.0293,1,1,0.565
7,34,1,2,1,0,2,0.7513,1,1,0.4791
7,35,2,1,2,0,1,1.1318,1,1,0.7316
7,36,2,1,2,0,1,1.2703,2,2,1.0621
7,37,2,2,2,1,2,1.3185,1,1,0.6623
7,38,2,2,1,0,2,1.0627,2,2,0.7265
7,39,2,2,1,0,2,0.94,2,2,0.8598
7,40,2,1,2,0,1,0.9727,1,1,0.6365
7,41,2,2,1,0,2,0.8801,1,2,0.864
7,42,2,1,1,1,1,0.7281,2,2,0.648
7,43,2,1,2,0,1,1.6479,1,1,0.7997
7,44,2,1,2,0,1,0.9309,2,1,0.7867
7,45,1,1,2,0,1,1.0532,2,2,0.461
7,46,2,1,2,0,1,0.8812,2,2,0.545
7,47,2,2,2,1,2,1.0749,1,1,0.8666
7,48,2,2,2,1,2,1.0788,2,2,0.6785
7,49,2,2,1,0,2,1.2592,2,1,2.011
7,50,1,1,2,0,1,1.0797,1,1,0.6795
7,51,1,1,2,0,2,1.3124,2,2,0.6588
7,52,1,1,1,1,1,0.9313,2,2,1.171
7,53,1,2,1,0,2,1.2575,2,2,0.4733
7,54,1,2,2,1,2,1.3297,2,2,0.6095
7,55,2,2,1,0,2,0.9525,1,1,0.6803
7,56,2,1,1,1,1,1.0689,2,2,0.6687
7,57,1,2,1,0,2,0.9529,2,2,0.6806
7,58,1,1,1,1,1,0.9413,2,2,0.7331
7,59,2,1,2,0,1,0.7076,2,2,0.5634
7,60,1,1,2,0,1,0.7615,2,2,0.8093
7,61,1,2,2,1,2,0.7249,2,1,0.4527
7,62,1,2,1,0,2,0.8567,2,2,0.7125
7,63,1,1,2,0,1,0.8216,2,2,0.7414
7,64,1,2,2,1,2,0.9954,2,2,0.6592
7,65,1,1,1,1,1,0.775,2,2,0.5668
7,66,2,2,2,1,2,0.6773,2,2,0.4691
7,67,2,2,2,1,2,0.6502,2,2,0.698
7,68,1,2,1,0,2,0.7836,1,1,0.7034
7,69,2,2,2,1,2,0.6962,1,1,0.616
7,70,2,2,2,1,2,0.6913,1,1,0.611
7,71,1,1,1,1,1,1.0703,1,1,0.4781
7,72,1,2,2,1,2,0.7585,1,1,0.6783
7,73,1,2,2,1,2,0.5315,1,2,0.8352
7,74,1,2,1,0,2,0.9671,1,1,0.5029
7,75,2,2,2,1,2,0.7598,2,1,0.7436
7,76,2,1,1,1,1,1.1095,2,2,0.6452
7,77,2,2,1,0,2,0.825,2,2,0.5527
7,78,1,1,2,0,1,0.9428,1,1,0.6066
7,79,1,2,2,1,1,0.8216,2,2,0.7902
7,80,2,1,1,1,1,0.8692,1,1,0.661
7,81,1,1,2,0,1,1.1894,1,2,0.4692
7,82,2,1,1,1,1,0.7099,1,1,1.5897
7,83,2,1,1,1,1,0.5891,1,1,0.5088
7,84,1,2,1,0,2,1.33,1,1,0.5457
7,85,1,2,1,0,2,0.7556,2,2,0.4834
7,86,2,1,2,0,1,0.7403,2,2,0.66
7,87,1,1,1,1,1,0.8045,1,1,0.4682
7,88,2,2,2,1,2,0.7487,2,2,0.6045
7,89,2,1,2,0,1,0.8717,2,1,0.6635
7,90,2,2,1,0,2,0.9366,1,2,1.1124
7,91,1,1,2,0,1,0.7935,2,2,0.5853
7,92,1,2,1,0,2,1.2078,1,1,0.6796
7,93,2,1,1,1,1,0.632,2,2,0.5518
7,94,1,2,2,1,2,1.0581,1,1,0.5939
7,95,1,2,1,0,2,0.8729,1,1,0.4087
7,96,2,1,2,0,1,0.8759,1,1,0.7317
7,97,1,2,2,1,2,1.0841,2,2,1.964
7,98,1,1,2,0,1,0.784,2,2,0.5758
7,99,2,2,1,0,2,0.7503,1,1,0.9261
7,100,1,2,1,0,2,1.3354,2,1,1.5112
7,101,1,2,2,1,2,0.7922,1,1,0.648
7,102,1,1,2,0,1,0.8682,2,2,0.788
7,103,2,1,1,1,1,0.7154,1,1,1.0832
7,104,1,1,2,0,1,0.74,2,2,1.2998
7,105,1,1,2,0,1,1.0009,1,2,0.7287
7,106,1,1,1,1,1,0.5943,2,2,0.7061
7,107,2,2,2,1,2,0.8321,1,1,0.7519
7,108,1,2,2,1,2,0.8139,2,2,0.6697
7,109,1,1,1,1,1,0.6861,2,2,0.6699
7,110,2,2,2,1,2,0.8666,2,2,0.7864
7,111,1,2,2,1,2,0.894,1,1,0.7498
7,112,1,1,2,0,1,1.0679,1,1,0.6036
7,113,1,2,2,1,2,0.7429,2,2,0.6628
7,114,2,1,1,1,1,0.6151,1,1,0.7909
7,115,2,1,1,1,1,0.6308,2,2,0.7426
7,116,1,2,1,0,2,0.9966,2,2,0.7244
7,117,1,1,1,1,1,0.618,1,1,0.7298
7,118,2,1,2,0,1,0.6874,1,1,0.9272
7,119,2,1,1,1,1,0.8245,2,2,0.5522
7,120,1,1,1,1,1,0.6224,1,1,0.4781
7,121,2,2,2,1,2,0.8226,1,1,0.6783
7,122,1,1,1,1,1,0.7587,2,1,0.4225
7,123,1,2,2,1,2,0.7861,2,2,0.6419
7,124,1,1,2,0,1,0.7627,2,2,0.6185
7,125,2,1,2,0,1,0.746,1,1,0.7938
7,126,2,2,1,0,2,0.9419,2,1,0.7977
7,127,2,1,1,1,1,0.6449,1,1,0.6927
7,128,2,2,1,0,2,0.7025,1,1,0.6863
7,129,1,2,1,0,2,0.7609,2,2,0.4887
7,130,2,2,2,1,2,1.0133,2,2,1.1251
7,131,2,2,1,0,2,0.6944,1,1,0.8062
7,132,1,2,1,0,2,0.7572,1,1,0.613
7,133,1,1,1,1,1,0.7522,1,1,0.928
7,134,1,2,1,0,2,0.6856,2,2,0.7973
7,135,1,2,2,1,2,0.9403,1,1,0.4761
7,136,2,1,1,1,1,0.6808,2,1,0.6646
7,137,2,1,1,1,1,0.717,1,1,0.7008
7,138,2,1,1,1,1,0.7459,2,2,0.7937
7,139,2,2,2,1,2,0.6976,1,1,0.6814
7,140,1,1,1,1,1,0.75,1,1,0.4778
7,141,2,1,1,1,1,0.7583,2,2,0.87
7,142,1,1,2,0,1,0.6864,1,1,0.4779
7,143,2,1,2,0,1,0.6946,1,1,0.6144
7,144,1,2,2,1,2,0.8177,1,1,0.4175
7,145,2,2,1,0,2,0.8207,2,2,0.6126
7,146,2,1,2,0,1,0.8798,1,1,1.2475
7,147,1,1,1,1,1,0.5645,2,2,0.9324
7,148,1,2,2,1,2,0.7422,1,1,0.5979
7,149,2,1,2,0,1,0.941,1,1,0.6688
7,150,2,1,1,1,1,0.7491,1,1,0.7329
7,151,2,1,1,1,1,0.6787,2,2,0.6625
7,152,2,2,2,1,2,0.8828,1,1,0.6745
7,153,2,1,2,0,1,0.6909,2,1,0.6747
7,154,1,1,1,1,1,0.6631,2,1,0.9669
7,155,2,1,2,0,1,0.8532,1,1,0.645
7,156,2,2,2,1,2,0.7489,2,2,1.0527
7,157,1,2,2,1,2,0.8206,1,1,0.8044
7,158,2,1,2,0,1,0.8076,1,1,0.6634
7,159,1,1,1,1,1,0.6158,2,2,1.0476
7,160,1,1,2,0,1,0.8037,1,1,0.4035
7,161,2,1,1,1,1,0.6915,2,1,0.5473
7,162,1,1,1,1,1,0.7696,2,1,0.8174
7,163,2,2,2,1,2,0.8096,1,1,0.6013
7,164,2,2,2,1,2,0.6413,1,1,0.8811
7,165,1,2,2,1,2,0.7615,2,2,1.2573
7,166,2,2,1,0,2,0.8252,1,2,0.8089
7,167,2,2,1,0,2,0.8599,1,1,0.7797
7,168,1,2,1,0,2,0.7189,1,1,0.5107
7,169,2,2,1,0,2,0.8199,1,1,0.8036
7,170,1,2,2,1,2,0.8069,2,2,0.5346
7,171,2,2,2,1,2,0.7445,2,2,0.7283
7,172,1,2,2,1,2,0.8661,2,2,0.5299
7,173,1,1,1,1,1,0.7044,2,2,0.6242
7,174,2,2,1,0,2,0.8679,2,2,0.7877
7,175,1,2,2,1,2,0.6864,1,1,0.7342
7,176,2,1,1,1,7,7,1,1,1.9798
7,177,1,1,2,0,2,1.7782,2,1,1.038
7,178,1,2,2,1,2,0.7897,1,1,0.5815
7,179,1,2,1,0,2,1.3321,2,2,0.6118
7,180,1,1,1,1,1,0.7511,1,1,0.4789
7,181,2,2,2,1,2,0.8116,1,2,2.2673
7,182,2,1,1,1,1,0.8123,1,1,0.7321
7,183,2,1,2,0,1,0.7706,2,2,0.8184
7,184,2,1,2,0,1,0.6987,2,2,0.8105
7,185,2,1,2,0,1,1.6862,1,1,0.8381
7,186,1,2,1,0,1,0.678,2,2,0.5318
7,187,1,2,1,0,2,0.6894,2,2,0.5451
7,188,2,2,1,0,2,0.7432,2,2,0.919
7,189,2,1,1,1,1,0.7524,1,1,1.1201
7,190,1,1,2,0,1,0.7534,1,1,0.5452
7,191,1,2,2,1,2,1.2031,2,1,1.3148
7,192,2,2,1,0,2,0.7319,2,2,0.5877
8,1,2,1,2,0,1,1.0781,1,1,0.6779
8,2,1,2,2,1,2,0.9503,1,2,1.1261
8,3,1,2,2,1,2,0.7197,2,2,0.5115
8,4,2,2,2,1,2,0.9485,1,1,1.1243
8,5,1,2,2,1,2,0.7863,2,2,1.0261
8,6,1,2,1,0,2,0.6256,1,1,0.3533
8,7,2,2,2,1,2,0.7514,1,2,0.9272
8,8,1,2,1,0,2,0.6685,2,2,0.8443
8,9,2,1,2,0,1,1.208,2,1,1.5118
8,10,2,1,2,0,1,0.7929,2,1,1.0966
8,11,2,2,2,1,2,0.7895,2,1,0.8373
8,12,2,2,1,0,2,0.789,2,2,0.7728
8,13,1,1,2,0,1,0.8231,2,2,0.6149
8,14,2,1,2,0,1,0.6261,2,2,0.8659
8,15,1,2,1,0,2,0.95,2,2,0.5498
8,16,2,1,1,1,1,0.7597,2,2,0.5515
8,17,1,1,2,0,1,1.2093,2,2,0.6811
8,18,2,1,2,0,1,0.7497,2,2,0.6055
8,19,1,1,2,0,1,0.6285,1,1,1.0603
8,20,1,1,2,0,1,0.7524,1,1,0.6722
8,21,1,1,2,0,1,0.7696,1,1,0.7533
8,22,1,2,2,1,2,0.7396,2,2,0.5954
8,23,1,1,2,0,1,1.1304,1,1,0.7942
8,24,2,2,1,0,2,0.8092,2,1,0.857
8,25,1,2,1,0,2,0.8345,2,2,0.5623
8,26,1,2,1,0,2,0.7773,1,1,0.6971
8,27,2,1,1,1,1,0.946,2,2,0.6098
8,28,1,1,1,1,1,0.9528,2,2,0.4886
8,29,2,1,1,1,1,0.7572,2,2,0.997
8,30,1,2,1,0,2,0.6957,2,2,0.6155
8,31,2,2,1,0,2,0.871,1,1,1.1748
8,32,1,2,2,1,2,0.569,2,2,0.4248
8,33,2,2,2,1,2,0.7188,2,2,0.7666
8,34,2,1,2,0,1,0.7529,1,1,1.1207
8,35,2,1,2,0,1,0.818,1,1,0.8658
8,36,1,2,2,1,2,0.7462,2,2,0.6659
8,37,2,1,1,1,1,0.7751,1,1,0.6948
8,38,2,2,1,0,2,0.74,1,1,0.6598
8,39,1,2,2,1,2,0.6121,1,1,0.468
8,40,1,2,1,0,2,0.7601,1,1,0.4239
8,41,2,2,1,0,2,0.6235,1,1,0.4792
8,42,1,1,1,1,1,0.8759,1,2,1.0517
8,43,2,1,1,1,1,0.9836,1,1,0.7754
8,44,2,2,2,1,2,0.6741,1,1,0.5299
8,45,1,2,2,1,2,0.7397,2,2,0.5315
8,46,1,2,1,0,2,0.6891,1,1,0.6729
8,47,2,2,1,0,2,1.0093,1,1,0.8011
8,48,1,2,1,0,2,0.5601,2,2,0.6079
8,49,1,2,1,0,2,0.5669,2,2,0.5507
8,50,1,1,1,1,2,1.2607,2,2,0.5263
8,51,2,1,1,1,1,0.7479,2,2,0.5396
8,52,1,1,1,1,2,0.5575,2,2,0.721
8,53,2,1,2,0,1,0.8823,1,1,0.9301
8,54,1,1,2,0,1,0.6877,1,1,0.7355
8,55,1,2,1,0,1,0.693,2,1,1.6753
8,56,1,1,2,0,1,0.7395,1,1,0.9792
8,57,1,1,2,0,1,0.742,1,1,1.1097
8,58,2,2,2,1,2,0.7717,1,1,1.0755
8,59,1,1,1,1,1,0.6802,1,1,0.5999
8,60,1,2,2,1,2,0.7391,2,1,0.9789
8,61,2,1,2,0,1,0.8939,2,2,0.6217
8,62,2,1,1,1,1,0.7139,2,2,0.5696
8,63,1,2,1,0,2,0.692,1,1,0.7397
8,64,1,2,2,1,2,0.8136,2,2,0.6693
8,65,1,1,2,0,1,0.7849,1,1,0.7687
8,66,1,1,1,1,1,0.6933,2,2,0.6131
8,67,1,1,1,1,1,0.6126,2,2,0.5324
8,68,2,1,2,0,1,0.6782,1,1,0.662
8,69,1,1,1,1,1,0.6262,1,1,0.4179
8,70,2,1,1,1,1,0.7572,1,1,0.677
8,71,1,1,1,1,1,0.5014,1,1,0.6772
8,72,1,1,2,0,1,0.6296,1,1,0.4214
8,73,2,2,1,0,1,0.7489,2,1,1.0441
8,74,1,1,2,0,1,0.8334,2,2,0.5612
8,75,2,1,2,0,1,0.8284,2,2,0.6842
8,76,2,2,2,1,2,0.8051,1,1,0.7889
8,77,2,1,1,1,1,0.7516,2,1,0.6714
8,78,1,1,1,1,1,0.7239,2,2,0.5156
8,79,2,2,1,0,2,0.7608,1,2,0.5526
8,80,2,1,1,1,1,1.8107,1,1,1.2824
8,81,2,2,1,0,2,0.9313,2,1,0.787
8,82,2,2,2,1,2,0.71,2,1,0.5019
8,83,1,2,1,0,2,0.719,1,1,0.3828
8,84,1,2,2,1,2,0.6293,2,2,0.4851
8,85,1,2,1,0,2,0.6898,1,1,0.6095
8,86,1,1,1,1,1,0.8246,1,1,0.6164
8,87,2,2,1,0,2,0.7556,2,1,1.3794
8,88,2,1,2,0,1,0.795,1,1,0.7788
8,89,1,1,2,0,1,0.782,1,1,1.0858
8,90,2,1,2,0,1,0.6786,1,1,0.6625
8,91,2,2,1,0,2,0.6788,2,1,0.7266
8,92,2,2,1,0,2,0.6158,1,2,0.7275
8,93,2,2,2,1,2,0.6049,2,2,0.4607
8,94,2,1,2,0,1,0.7529,2,2,1.3127
8,95,1,1,1,1,1,0.874,1,1,0.7937
8,96,1,1,2,0,1,0.7094,2,2,0.5652
8,97,1,2,2,1,2,0.7452,1,1,0.345
8,98,2,2,1,0,2,0.9925,2,1,0.5923
8,99,1,2,1,0,2,0.663,2,2,0.5828
8,100,1,1,1,1,1,0.7574,2,2,0.5491
8,101,2,1,1,1,1,0.695,2,1,0.6788
8,102,2,1,2,0,1,0.6032,1,1,0.651
8,103,2,2,2,1,2,1.1911,2,1,0.5989
8,104,1,2,1,0,2,0.6344,1,1,0.4262
8,105,1,2,1,0,2,0.678,1,1,0.6617
8,106,1,2,1,0,2,0.5501,2,2,0.534
8,107,2,2,2,1,2,0.6915,1,1,0.7393
8,108,2,2,1,0,2,0.6329,2,2,0.5527
8,109,1,2,2,1,2,0.6228,1,1,0.6065
8,110,1,2,2,1,2,0.6296,1,2,0.4853
8,111,2,2,1,0,2,0.6503,2,1,0.762
8,112,2,2,2,1,2,0.621,2,2,0.6688
8,113,2,2,2,1,2,0.6212,1,1,0.733
8,114,2,1,1,1,1,0.7715,1,2,0.5633
8,115,2,2,1,0,2,0.7334,2,2,0.5892
8,116,2,1,1,1,1,0.8682,1,1,0.724
8,117,1,1,1,1,1,0.6816,2,2,0.5374
8,118,1,1,2,0,1,0.759,2,2,0.4867
8,119,1,2,2,1,2,0.6914,2,2,0.4192
8,120,2,2,1,0,2,0.6945,1,2,0.5502
8,121,1,2,1,0,2,0.7321,1,1,0.4599
8,122,1,1,1,1,1,0.6241,1,1,0.5439
8,123,2,1,1,1,1,0.6257,1,1,0.5455
8,124,1,2,1,0,2,0.7436,2,2,0.4713
8,125,1,1,2,0,1,0.7504,1,1,0.6701
8,126,2,2,2,1,2,0.5468,1,1,0.6586
8,127,2,1,1,1,1,0.611,2,2,0.5308
8,128,2,2,1,0,2,0.6935,2,2,0.5493
8,129,2,2,2,1,2,0.9195,1,1,0.6473
8,130,2,1,1,1,1,0.7211,1,1,0.5769
8,131,1,1,1,1,1,0.6874,2,2,0.6712
8,132,2,2,1,0,2,0.6237,1,1,0.6074
8,133,2,1,2,0,1,0.6944,2,2,0.5502
8,134,1,2,2,1,2,0.632,1,1,0.6798
8,135,1,2,2,1,2,0.5042,1,1,0.744
8,136,2,1,1,1,1,0.7538,2,2,0.5456
8,137,2,1,2,0,1,0.6797,2,2,0.4715
8,138,2,1,1,1,1,0.6762,1,1,0.5959
8,139,2,1,2,0,1,0.5836,2,1,0.7595
8,140,1,1,2,0,1,0.5898,2,2,0.5095
8,141,1,2,2,1,2,0.7194,1,1,0.5111
8,142,1,2,1,0,2,0.6806,2,2,0.5363
8,143,2,2,2,1,2,0.6299,1,1,0.8057
8,144,2,1,1,1,1,0.7567,1,1,0.7404
8,145,1,1,1,1,1,0.5583,2,2,0.5421
8,146,1,1,1,1,1,0.5599,1,1,0.7997
8,147,2,1,1,1,1,0.6749,2,1,0.7867
8,148,2,2,1,0,1,0.6222,1,1,0.7908
8,149,2,1,2,0,1,0.6139,2,1,0.4056
8,150,1,1,1,1,1,0.7926,2,2,0.7124
8,151,1,1,2,0,1,0.8098,2,2,0.9855
8,152,1,2,2,1,2,0.713,1,1,0.5048
8,153,2,1,1,1,1,0.8139,1,1,0.7977
8,154,2,1,2,0,1,0.5685,1,1,0.7442
8,155,2,2,1,0,2,0.6783,2,2,0.5341
8,156,1,2,2,1,2,0.5637,2,2,0.4194
8,157,2,1,2,0,1,0.6947,1,1,0.6785
8,158,2,2,2,1,2,0.6309,2,1,0.7427
8,159,1,1,1,1,1,0.7246,1,1,0.8363
8,160,1,2,1,0,2,0.6292,1,1,0.357
8,161,1,2,1,0,2,0.7036,1,1,0.3674
8,162,2,2,2,1,2,0.6596,2,1,0.3873
8,163,2,2,2,1,2,0.6464,2,1,0.4382
8,164,1,1,2,0,1,0.7141,2,2,0.5699
8,165,1,1,2,0,1,0.6283,1,1,1.316
8,166,2,1,2,0,1,0.9531,1,1,0.6809
8,167,1,1,2,0,1,0.5693,2,2,0.4251
8,168,1,1,2,0,1,0.7526,2,2,0.6723
8,169,2,2,1,0,2,0.6247,1,1,0.8005
8,170,1,1,2,0,1,0.7515,2,2,0.4793
8,171,1,1,1,1,1,0.6722,2,2,0.464
8,172,2,2,2,1,2,0.8253,1,1,0.5531
8,173,2,1,1,1,1,0.6755,2,1,0.6592
8,174,2,2,1,0,2,0.7639,1,1,0.8117
8,175,2,1,1,1,1,0.6751,2,2,0.5309
8,176,1,2,2,1,2,0.6768,1,1,0.4045
8,177,1,1,1,1,1,0.6916,1,1,0.4194
8,178,1,2,2,1,2,0.6947,2,2,0.5505
8,179,2,1,2,0,1,0.6962,1,1,0.4881
8,180,1,2,2,1,2,0.5647,1,1,0.4845
8,181,1,2,1,0,2,0.5612,2,2,0.4809
8,182,1,1,2,0,1,0.6856,2,2,0.9254
8,183,2,2,1,0,2,0.7116,1,2,1.0154
8,184,1,1,1,1,1,0.7149,1,1,0.6347
8,185,1,1,1,1,1,1.1226,1,1,0.7864
8,186,2,1,1,1,1,0.7492,1,2,0.605
8,187,1,2,2,1,2,0.6809,1,1,0.4727
8,188,2,2,2,1,2,0.5612,1,2,0.6089
8,189,2,2,2,1,2,0.4759,2,1,0.9717
8,190,2,1,2,0,1,0.666,2,1,0.7778
8,191,2,2,2,1,2,0.7243,2,2,0.6441
8,192,2,2,2,1,2,0.5678,2,1,0.8716
9,1,1,1,1,1,1,0.9475,1,1,0.9953
9,2,2,1,1,1,1,0.822,1,1,1.1259
9,3,1,1,2,0,1,0.6951,2,2,0.4869
9,4,1,1,1,1,1,0.7607,2,2,0.4885
9,5,2,1,2,0,1,0.7454,2,7,7
9,6,2,1,1,1,1,0.8054,2,2,0.6611
9,7,1,1,1,1,1,0.5613,1,1,0.5451
9,8,2,2,2,1,2,0.6909,1,1,0.7387
9,9,2,2,2,1,2,0.6963,2,2,0.7441
9,10,1,1,1,1,1,0.5619,2,2,0.7377
9,11,2,2,1,0,2,0.7593,2,2,0.615
9,12,2,2,2,1,2,0.6903,1,1,0.7381
9,13,1,1,1,1,1,0.6317,1,1,0.4875
9,14,2,1,1,1,1,0.5001,1,1,0.5479
9,15,1,1,1,1,1,0.6297,2,1,1.0615
9,16,2,1,2,0,1,0.7897,2,2,0.5814
9,17,2,1,2,0,1,1.524,1,1,1.1878
9,18,2,1,1,1,1,0.6225,2,2,0.5423
9,19,2,2,2,1,2,0.8161,2,2,0.9279
9,20,1,2,1,0,2,0.6972,1,1,0.489
9,21,1,1,2,0,1,0.7577,2,2,0.4854
9,22,2,1,1,1,1,0.5386,1,1,0.6504
9,23,1,1,1,1,1,0.5505,2,2,0.6623
9,24,2,1,1,1,1,0.5155,2,2,0.6272
9,25,2,2,1,0,2,0.743,2,2,0.6628
9,26,2,2,1,0,2,0.8829,1,1,0.7387
9,27,2,2,2,1,2,0.6963,1,1,0.7441
9,28,2,2,2,1,2,0.6899,1,1,0.5457
9,29,1,2,1,0,2,0.9475,2,2,0.8673
9,30,1,2,1,0,2,1.0154,1,1,0.4872
9,31,1,2,2,1,2,0.6919,1,1,0.5477
9,32,1,1,1,1,1,1.0775,1,1,0.4853
9,33,2,1,1,1,1,0.7356,1,1,0.7833
9,34,2,2,1,0,2,0.6938,2,2,1.1896
9,35,2,1,2,0,1,0.6883,2,1,0.5441
9,36,2,1,1,1,1,0.7142,1,1,0.57
9,37,1,1,1,1,1,0.6805,1,1,0.4723
9,38,2,1,2,0,1,0.7057,2,2,0.6894
9,39,2,1,2,0,1,0.6941,2,2,0.8699
9,40,2,2,2,1,2,0.8143,1,1,0.798
9,41,1,2,1,0,2,0.6328,2,2,1.3206
9,42,2,2,1,0,2,0.6899,1,1,0.6737
9,43,2,2,1,0,2,0.69,1,1,0.5458
9,44,2,2,2,1,2,0.7439,1,1,0.6637
9,45,1,1,2,0,1,0.6801,2,2,0.4719
9,46,2,2,1,0,2,0.6243,1,1,0.4802
9,47,2,1,2,0,1,0.6966,2,1,1.1283
9,48,2,1,2,0,1,0.6579,2,2,0.7057
9,49,2,1,1,1,1,0.6868,1,1,0.5426
9,50,2,1,2,0,1,0.6766,2,1,0.5324
9,51,2,1,2,0,1,0.9063,1,1,0.5061
9,52,1,1,1,1,1,0.5357,2,2,0.4555
9,53,1,1,2,0,1,0.6954,1,1,0.4232
9,54,2,1,2,0,1,0.6227,2,2,0.6065
9,55,2,2,1,0,2,0.7575,1,1,0.8693
9,56,1,2,1,0,2,0.6857,2,2,0.4135
9,57,1,2,2,1,2,0.7409,2,2,0.4678
9,58,1,2,1,0,2,0.6852,1,1,0.605
9,59,1,2,1,0,2,0.7442,2,2,0.472
9,60,1,2,1,0,2,0.7054,2,2,0.4331
9,61,1,1,1,1,1,0.6966,2,2,0.7444
9,62,2,2,2,1,2,0.6263,1,1,0.674
9,63,2,2,2,1,2,0.6265,2,2,0.6102
9,64,2,1,1,1,1,0.6855,1,1,0.9253
9,65,1,1,1,1,1,0.5671,2,2,0.4229
9,66,2,2,1,0,2,0.668,2,2,0.5878
9,67,2,1,1,1,1,0.5468,2,2,0.5946
9,68,1,1,1,1,1,0.6294,2,2,0.6131
9,69,2,2,1,0,2,0.6884,2,2,0.4802
9,70,1,2,2,1,2,0.6966,1,1,0.5524
9,71,1,2,1,0,2,0.8785,2,2,0.6702
9,72,1,1,1,1,1,0.6749,1,1,0.4667
9,73,2,1,1,1,1,0.6831,1,1,0.5389
9,74,2,1,1,1,1,0.6207,2,2,0.6045
9,75,1,2,2,1,2,0.6797,1,1,0.5995
9,76,2,1,2,0,1,0.5585,1,1,0.4783
9,77,2,2,1,0,2,0.6948,2,2,0.6145
9,78,1,2,2,1,2,0.7538,1,1,0.4176
9,79,2,1,2,0,1,0.6928,1,2,0.5486
9,80,2,1,1,1,1,0.6547,2,1,0.5105
9,81,2,2,1,0,2,0.7159,2,1,0.5077
9,82,1,2,1,0,2,0.649,2,2,0.8888
9,83,1,1,1,1,1,0.5655,2,2,0.4213
9,84,1,2,2,1,2,0.6325,1,1,0.4243
9,85,1,2,1,0,2,0.6238,2,2,0.4156
9,86,2,2,1,0,2,0.6268,1,1,0.8026
9,87,2,2,2,1,2,0.5616,2,2,0.5454
9,88,2,2,2,1,2,0.5515,2,2,0.9192
9,89,1,2,1,0,2,0.8688,2,2,0.4686
9,90,2,1,2,0,1,0.685,1,1,0.6048
9,91,1,2,2,1,2,0.7558,2,2,0.4196
9,92,2,1,2,0,1,0.9509,1,1,0.7427
9,93,1,2,1,0,2,0.7525,2,2,0.4163
9,94,2,1,1,1,1,0.6915,1,1,0.5473
9,95,2,1,1,1,1,0.6174,1,1,0.4732
9,96,1,1,2,0,1,1.2185,2,2,0.6903
9,97,1,1,2,0,1,0.5519,2,2,0.4077
9,98,2,1,1,1,1,0.6189,2,2,0.5387
9,99,1,1,2,0,1,0.6963,1,1,0.6802
9,100,2,1,2,0,1,0.4927,1,1,0.4765
9,101,2,2,2,1,2,0.757,2,2,0.6768
9,102,2,1,2,0,1,0.5652,2,2,0.8049
9,103,2,1,2,0,1,0.5522,1,1,0.4719
9,104,1,2,1,0,2,0.6766,1,1,0.4684
9,105,1,2,1,0,2,0.6208,1,1,0.4126
9,106,1,1,2,0,1,0.6239,1,1,0.4157
9,107,2,2,2,1,2,0.6909,2,2,0.5467
9,108,1,2,1,0,2,0.6808,1,1,0.7926
9,109,1,2,2,1,2,0.5633,1,1,0.5471
9,110,1,1,1,1,1,0.6929,2,2,0.4208
9,111,2,2,1,0,2,0.7247,1,1,0.5165
9,112,2,2,1,0,2,0.5461,1,1,0.5299
9,113,1,1,2,0,1,0.6117,2,2,0.7235
9,114,1,1,1,1,1,0.6928,1,1,0.4846
9,115,2,2,2,1,2,0.6423,1,1,0.818
9,116,1,1,2,0,1,0.6815,1,1,0.5373
9,117,1,2,2,1,2,0.6191,2,2,1.2429
9,118,1,1,2,0,1,0.6945,1,1,0.8703
9,119,2,2,2,1,2,0.6867,2,2,0.6705
9,120,2,1,1,1,1,0.6869,2,1,0.4786
9,121,1,2,2,1,2,0.6671,1,2,0.4589
9,122,2,2,2,1,2,0.6709,2,2,0.5907
9,123,1,1,1,1,1,0.6895,2,2,0.4172
9,124,2,2,1,0,2,0.7565,2,2,0.6123
9,125,1,1,1,1,1,0.6758,1,1,0.4676
9,126,1,2,2,1,2,0.6487,2,2,0.4405
9,127,2,1,2,0,1,0.6804,1,1,0.6002
9,128,2,1,1,1,1,0.5475,1,1,0.6592
9,129,1,1,2,0,1,0.5786,2,2,0.4344
9,130,1,1,2,0,1,0.6508,2,2,0.4426
9,131,1,1,2,0,1,0.6944,1,1,0.4862
9,132,1,1,2,0,1,0.6268,2,2,0.4186
9,133,2,1,2,0,1,0.6299,2,2,0.4856
9,134,2,1,2,0,1,0.6263,1,1,0.6741
9,135,1,1,2,0,1,0.6905,2,2,0.4823
9,136,2,1,1,1,1,0.5759,2,2,0.6237
9,137,1,2,2,1,2,0.7394,2,2,0.4672
9,138,1,2,2,1,2,0.6836,2,2,0.4754
9,139,1,1,1,1,1,0.6801,1,1,0.5358
9,140,2,2,2,1,2,0.6346,1,1,0.5544
9,141,1,1,2,0,1,0.8047,1,1,0.5325
9,142,1,2,1,0,2,0.6261,1,1,0.4819
9,143,2,2,1,0,2,0.6225,2,2,0.6703
9,144,2,2,1,0,2,0.6868,1,1,0.6705
9,145,1,1,2,0,1,0.7509,2,2,0.4787
9,146,2,2,2,1,2,0.6312,1,1,0.615
9,147,1,2,1,0,2,0.6902,1,1,0.482
9,148,2,2,1,0,2,0.6397,2,2,0.6234
9,149,1,2,2,1,2,0.6111,1,1,0.4669
9,150,2,2,2,1,2,0.5553,2,2,0.6671
9,151,2,1,2,0,1,0.7475,1,1,0.6033
9,152,1,1,1,1,1,0.655,1,1,0.4467
9,153,1,1,2,0,1,0.7507,1,1,0.9265
9,154,1,1,2,0,1,0.6318,1,1,0.4236
9,155,1,2,1,0,2,0.7511,1,1,0.4789
9,156,2,2,1,0,2,0.6954,2,2,0.8071
9,157,1,2,2,1,2,0.6941,2,2,0.4859
9,158,1,2,2,1,2,0.6266,2,2,0.4824
9,159,2,1,1,1,1,0.7393,2,2,0.6591
9,160,1,2,2,1,2,0.6872,2,2,0.543
9,161,2,2,1,0,2,0.7597,1,1,0.5515
9,162,2,2,1,0,2,0.6032,2,2,0.715
9,163,2,2,2,1,2,0.6204,2,2,0.5401
9,164,1,2,1,0,2,0.878,1,1,0.4777
9,165,1,1,2,0,1,0.6942,1,1,0.486
9,166,2,1,1,1,1,0.6266,2,2,0.5464
9,167,2,2,2,1,2,0.6922,1,1,1.316
9,168,1,1,2,0,1,0.6331,1,1,0.4889
9,169,2,1,2,0,1,0.6296,1,1,0.6773
9,170,1,2,2,1,2,0.6467,2,2,0.5025
9,171,1,1,2,0,1,0.6196,1,1,0.4754
9,172,2,2,1,0,2,0.6448,1,1,0.5005
9,173,1,1,1,1,1,0.6177,2,2,0.4094
9,174,2,1,1,1,1,0.545,2,1,0.8487
9,175,1,2,2,1,2,0.5849,2,2,0.3767
9,176,1,2,2,1,2,0.652,1,1,0.4437
9,177,2,1,2,0,1,0.6955,2,2,0.8073
9,178,1,1,2,0,1,1.3342,2,2,0.55
9,179,1,2,2,1,2,0.7598,2,2,0.4877
9,180,2,2,2,1,2,0.6283,2,2,0.8041
9,181,1,2,2,1,2,0.6271,1,1,0.4829
9,182,1,2,1,0,2,0.6522,2,2,0.508
9,183,1,1,1,1,1,0.6774,1,1,0.6612
9,184,1,2,1,0,2,0.7416,1,1,0.4694
9,185,1,1,1,1,1,0.5343,1,1,0.518
9,186,1,2,2,1,2,0.6117,1,1,0.5315
9,187,2,1,1,1,1,0.6132,1,1,0.5331
9,188,1,2,1,0,2,0.6267,2,2,0.7385
9,189,2,2,1,0,2,0.76,1,1,0.4878
9,190,2,2,2,1,2,0.6285,1,1,0.9323
9,191,1,2,2,1,2,0.6898,1,1,0.4816
9,192,1,2,1,0,2,0.6223,1,1,0.4781
10,1,1,1,2,0,2,0.7254,2,2,1.2362
10,2,1,1,2,0,2,0.7777,2,2,1.1016
10,3,2,2,1,0,2,1.1947,2,1,1.3705
10,4,1,2,2,1,2,0.7456,1,2,0.6654
10,5,1,2,2,1,2,0.7178,1,2,1.3416
10,6,1,2,1,0,2,0.6476,1,1,1.3994
10,7,2,1,2,0,1,1.1343,2,2,1.3102
10,8,1,2,1,0,2,0.8832,1,2,0.867
10,9,2,2,2,1,2,0.7311,2,2,0.9069
10,10,2,2,2,1,2,0.688,1,2,1.0558
10,11,2,2,1,0,2,0.72,2,1,0.8958
10,12,2,1,2,0,2,0.9166,1,1,1.2914
10,13,2,2,1,0,2,0.6842,2,2,1.3719
10,14,1,1,2,0,1,0.9149,2,2,1.2827
10,15,2,2,1,0,2,0.6755,2,2,1.0432
10,16,1,2,2,1,2,0.8229,2,2,1.0627
10,17,1,1,2,0,1,1.0108,2,2,0.8666
10,18,2,1,1,1,1,0.8397,2,2,0.9515
10,19,1,1,2,0,1,0.9415,1,1,1.0533
10,20,1,2,1,0,2,0.8734,1,1,0.9852
10,21,1,1,1,1,1,0.8877,2,2,0.7435
10,22,2,2,2,1,2,0.8056,2,2,0.9814
10,23,2,1,2,0,1,0.9478,1,1,0.9316
10,24,2,2,2,1,2,0.6892,2,1,1.825
10,25,1,1,2,0,1,1.146,1,1,1.5777
10,26,2,2,2,1,2,0.6765,1,1,0.8522
10,27,2,2,1,0,2,0.6097,2,2,0.9775
10,28,1,2,2,1,2,0.769,2,2,0.8167
10,29,2,2,2,1,2,0.5691,1,1,1.1929
10,30,1,2,2,1,1,0.5637,1,2,0.9713
10,31,1,2,2,1,2,0.6656,2,2,0.8414
10,32,1,1,2,0,1,0.7571,2,2,0.8689
10,33,2,1,1,1,1,0.8301,1,1,1.0059
10,34,1,1,2,0,1,0.7267,2,2,0.9025
10,35,1,1,2,0,1,1.1721,1,1,0.8999
10,36,1,1,1,1,1,0.7097,2,2,0.8214
10,37,2,2,1,0,2,0.8887,1,1,1.0644
10,38,1,1,1,1,1,0.8206,2,1,0.8044
10,39,2,2,2,1,2,0.7274,2,2,1.1591
10,40,1,2,1,0,2,0.8212,1,1,0.9969
10,41,1,1,1,1,1,0.9517,2,2,0.9355
10,42,2,2,1,0,2,0.8093,2,2,1.305
10,43,2,1,1,1,1,0.895,2,2,1.1988
10,44,1,1,1,1,1,0.8778,1,1,0.9255
10,45,2,2,2,1,2,0.6309,2,2,1.0626
10,46,2,1,1,1,1,0.7548,1,2,1.5706
10,47,2,2,2,1,2,0.9208,1,1,1.2246
10,48,1,1,1,1,1,0.8042,2,2,0.98
10,49,2,1,2,0,1,0.8707,2,2,1.1106
10,50,2,1,2,0,1,0.7556,2,2,0.9953
10,51,2,2,1,0,2,0.7463,2,2,1.1141
10,52,2,1,2,0,1,0.7592,2,2,1.063
10,53,2,2,1,0,2,0.6271,1,1,0.8669
10,54,2,2,1,0,2,0.8231,1,1,0.9988
10,55,2,2,2,1,2,0.7498,1,2,1.1816
10,56,2,2,1,0,2,0.6929,1,1,0.9326
10,57,2,2,1,0,2,0.6144,1,1,0.9821
10,58,1,1,1,1,1,0.7566,2,2,0.9324
10,59,1,1,2,0,1,0.8062,2,2,0.854
10,60,1,2,1,0,2,0.7109,2,2,0.8226
10,61,2,1,2,0,1,0.7501,1,2,1.1819
10,62,1,1,1,1,1,0.7284,1,1,0.9682
10,63,1,1,2,0,1,0.6905,1,2,1.1862
10,64,2,2,1,0,2,0.7849,1,1,1.0247
10,65,2,2,1,0,2,0.8198,2,2,1.3155
10,66,1,1,2,0,1,0.9954,2,2,0.7232
10,67,1,2,1,0,2,0.6807,1,2,1.4325
10,68,1,2,2,1,2,0.7945,2,2,0.9063
10,69,2,1,1,1,1,0.7801,2,2,1.1479
10,70,2,2,1,0,2,0.7576,1,1,1.0614
10,71,2,2,2,1,2,0.7536,1,2,1.0573
10,72,1,1,2,0,1,0.8312,2,2,0.9429
10,73,2,1,1,1,1,0.6771,1,1,1.0447
10,74,2,2,2,1,2,0.614,2,1,1.0458
10,75,2,1,2,0,1,0.7857,2,2,1.0895
10,76,2,1,2,0,1,0.6941,2,2,1.1899
10,77,2,1,1,1,1,0.6246,1,1,0.8645
10,78,1,2,1,0,2,0.8206,1,2,1.1884
10,79,2,2,1,0,2,0.5833,2,2,1.0151
10,80,1,2,2,1,2,0.6432,1,1,0.947
10,81,1,2,2,1,2,0.6171,2,2,0.9848
10,82,2,1,1,1,1,0.8756,2,2,0.9874
10,83,2,2,2,1,2,0.5581,2,2,0.8619
10,84,2,1,2,0,1,0.562,2,2,1.1218
10,85,1,1,1,1,1,0.7551,1,1,1.8909
10,86,1,1,2,0,1,0.5674,2,2,0.9352
10,87,1,1,1,1,1,1.0297,1,1,1.0775
10,88,1,2,2,1,2,0.6299,2,2,0.9976
10,89,1,1,2,0,1,0.8244,1,2,0.8721
10,90,1,1,2,0,1,0.7245,2,2,1.5404
10,91,2,2,2,1,2,0.8663,2,1,1.1701
10,92,1,2,1,0,2,0.6003,2,2,1.6081
10,93,2,2,2,1,2,0.695,1,1,1.1268
10,94,1,2,1,0,2,0.6844,1,1,1.5001
10,95,2,2,2,1,2,0.7452,2,2,0.7929
10,96,1,2,1,0,2,0.5166,1,1,0.8844
10,97,2,1,2,0,1,0.9627,2,7,7
10,98,2,2,2,1,2,0.7577,1,1,0.7417
10,99,2,1,2,0,1,0.8793,1,1,0.7991
10,100,1,2,2,1,2,0.8141,2,2,1.1819
10,101,1,2,2,1,2,0.7564,2,2,0.8682
10,102,2,1,1,1,1,0.7015,1,1,0.7493
10,103,1,1,1,1,1,0.6951,2,1,1.4469
10,104,1,2,2,1,2,0.7919,1,1,1.8637
10,105,2,1,1,1,1,0.7845,2,1,1.1523
10,106,2,1,2,0,1,0.7223,1,1,0.8981
10,107,2,2,2,1,1,0.6909,1,1,0.789
10,108,1,1,2,0,1,0.7517,2,2,0.9915
10,109,2,2,1,0,2,0.6785,1,1,1.5583
10,110,1,1,1,1,1,0.7444,2,2,0.8562
10,111,2,1,1,1,1,0.6962,2,2,1.0639
10,112,1,2,1,0,2,0.645,2,2,0.8848
10,113,2,1,2,0,1,0.6137,1,1,0.9814
10,114,2,1,2,0,1,0.6162,1,2,1.048
10,115,1,2,1,0,2,0.7239,2,2,0.9636
10,116,2,1,2,0,1,0.6742,1,1,1.1699
10,117,1,2,1,0,2,0.6282,2,2,0.996
10,118,2,2,2,1,2,0.6947,2,2,0.8065
10,119,1,1,1,1,1,0.8215,1,1,0.8693
10,120,1,2,2,1,2,0.5577,1,1,1.4374
10,121,2,1,2,0,1,0.6891,2,2,0.8008
10,122,2,1,1,1,1,0.5481,2,1,1.4278
10,123,1,2,2,1,1,0.6251,2,2,0.91
10,124,2,1,1,1,1,0.7485,1,2,1.8202
10,125,1,1,1,1,1,0.5733,1,1,0.813
10,126,1,1,1,1,1,1.3165,1,1,0.9163
10,127,1,1,1,1,1,0.6738,1,1,0.7856
10,128,2,2,2,1,2,0.6322,1,1,1
10,129,2,1,1,1,1,0.6399,2,2,0.7517
10,130,1,1,1,1,1,0.6857,2,2,0.7335
10,131,1,1,1,1,1,0.6153,1,1,1.3671
10,132,2,2,2,1,2,0.6775,1,1,0.9813
10,133,1,1,2,0,1,0.7323,1,2,1.1001
10,134,2,1,1,1,1,0.5745,1,1,0.9423
10,135,2,2,1,0,2,0.7691,2,1,0.9449
10,136,1,1,2,0,1,0.6443,1,1,1.0761
10,137,2,1,2,0,1,0.5175,2,2,1.0132
10,138,1,2,1,0,2,0.6244,2,2,0.7362
10,139,2,1,1,1,1,0.7577,1,1,0.8695
10,140,2,2,2,1,2,0.7499,1,1,1.1817
10,141,2,2,1,0,2,0.5642,1,1,0.804
10,142,2,1,2,0,1,0.6269,1,2,0.8667
10,143,1,2,1,0,2,0.6551,1,2,0.9589
10,144,1,1,2,0,1,0.6179,1,1,0.7937
10,145,1,2,2,1,2,0.5527,2,2,0.9205
10,146,2,2,2,1,2,0.486,2,2,1.1098
10,147,2,2,1,0,2,0.504,1,1,1.1278
10,148,2,1,1,1,1,0.7899,2,2,1.2216
10,149,2,1,1,1,1,0.557,2,2,0.8608
10,150,1,1,2,0,1,0.689,1,2,0.8008
10,151,1,2,1,0,2,0.8555,2,2,1.0313
10,152,1,2,2,1,2,0.7469,1,1,1.1787
10,153,1,2,1,0,2,0.6252,2,2,0.801
10,154,1,1,2,0,1,0.5482,1,1,0.916
10,155,2,1,1,1,1,0.7611,1,1,0.8729
10,156,1,1,1,1,1,0.6775,1,1,1.4293
10,157,1,1,1,1,1,0.6169,2,2,0.9847
10,158,2,1,1,1,1,0.6194,2,2,0.7952
10,159,1,2,2,1,2,0.7109,1,2,1.5267
10,160,1,2,2,1,2,0.6387,2,2,0.8146
10,161,2,2,1,0,2,0.7368,1,1,0.9766
10,162,2,1,2,0,1,0.7158,1,1,0.8276
10,163,1,1,2,0,1,0.7433,1,1,0.9191
10,164,1,1,1,1,1,0.6766,2,2,0.6604
10,165,1,2,1,0,2,0.7408,2,2,0.7246
10,166,1,1,1,1,1,0.7462,2,2,0.794
10,167,2,1,1,1,1,0.617,1,1,0.7928
10,168,2,2,1,0,2,0.6797,2,2,0.7915
10,169,2,1,1,1,1,0.6145,2,1,0.8543
10,170,1,2,1,0,2,0.6832,1,1,0.795
10,171,1,2,2,1,2,0.6937,2,2,0.8695
10,172,1,2,1,0,2,0.7263,2,2,1.1581
10,173,1,2,2,1,2,0.6164,1,1,0.9202
10,174,1,2,1,0,2,0.5902,1,1,1.086
10,175,2,1,1,1,1,0.8068,1,1,0.9186
10,176,2,1,2,0,1,0.6879,1,1,0.7997
10,177,2,1,2,0,1,0.7507,2,2,0.9265
10,178,1,2,2,1,2,0.5678,1,1,1.1916
10,179,2,1,2,0,1,0.7425,1,1,0.7903
10,180,2,1,2,0,1,0.6773,2,2,0.8531
10,181,2,2,1,0,2,0.8092,2,2,0.9211
10,182,1,1,2,0,1,0.5793,1,1,1.0751
10,183,2,2,2,1,2,0.5517,2,2,0.7275
10,184,1,1,1,1,1,0.493,1,1,0.9248
10,185,1,1,1,1,1,0.6942,1,1,1.0619
10,186,2,2,1,0,2,0.7423,1,1,0.8541
10,187,1,2,2,1,2,0.886,1,1,1.5098
10,188,2,1,1,1,1,0.5628,1,1,1.9546
10,189,1,2,1,0,2,0.6245,2,2,0.6083
10,190,1,2,1,0,2,0.6953,1,1,1.2551
10,191,1,2,2,1,2,0.695,1,1,0.9988
10,192,1,2,1,0,2,0.5578,2,2,0.6695
11,1,2,2,2,1,2,1.0806,1,1,1.1284
11,2,1,2,2,1,2,0.7956,1,1,0.8433
11,3,2,2,2,1,2,1.4395,1,1,2.8313
11,4,2,2,1,0,2,1.0785,2,2,0.8064
11,5,2,2,1,0,2,0.6933,1,1,0.8691
11,6,2,2,2,1,2,0.8253,2,2,0.937
11,7,1,2,2,1,2,0.7704,2,2,0.7541
11,8,1,1,2,0,1,0.7522,1,1,0.8
11,9,1,2,1,0,2,0.687,2,2,0.4787
11,10,2,2,1,0,2,0.6952,2,2,0.807
11,11,1,2,2,1,2,0.7579,1,1,0.8697
11,12,2,2,2,1,2,0.7501,1,1,1.0539
11,13,1,2,1,0,2,0.6938,2,2,1.5736
11,14,1,2,1,0,2,0.6318,2,2,0.5516
11,15,1,1,2,0,1,0.6334,1,1,0.9372
11,16,2,2,2,1,2,0.6948,1,1,0.8065
11,17,1,1,1,1,1,0.7575,2,2,0.7413
11,18,2,2,2,1,2,0.6872,1,1,1.0549
11,19,2,1,2,0,1,0.6308,2,2,0.9986
11,20,1,1,2,0,1,0.7025,2,2,0.7503
11,21,1,2,1,0,2,0.6321,2,2,0.6799
11,22,2,1,2,0,1,0.6205,2,2,0.7323
11,23,1,2,2,1,1,0.7539,1,2,2.8294
11,24,1,2,1,0,2,0.8185,1,1,0.8662
11,25,2,2,2,1,2,0.6827,2,2,0.6664
11,26,1,2,2,1,2,0.6762,2,2,0.788
11,27,2,1,2,0,1,0.7508,1,1,2.0146
11,28,1,1,2,0,1,1.3297,1,1,1.1215
11,29,2,2,2,1,2,0.743,2,2,0.6628
11,30,2,1,1,1,2,0.6909,1,1,1.4931
11,31,1,2,2,1,2,0.9418,2,2,0.9896
11,32,1,1,1,1,1,0.4845,1,1,1.4923
11,33,1,2,2,1,2,0.4212,1,1,0.597
11,34,2,1,1,1,1,0.6317,2,2,0.8075
11,35,1,2,1,0,2,0.5025,1,1,1.5103
11,36,2,2,2,1,2,0.6156,2,2,1.4954
11,37,1,1,2,0,1,0.8161,1,1,0.9919
11,38,2,2,1,0,2,0.6437,2,2,0.4994
11,39,2,1,1,1,1,0.7563,2,2,1.9561
11,40,2,1,2,0,1,0.69,1,1,1.5698
11,41,2,2,1,0,2,0.82,2,2,1.0597
11,42,1,2,2,1,2,0.6239,1,1,0.6717
11,43,1,2,1,0,2,0.6241,1,1,0.6719
11,44,2,1,2,0,1,0.6125,2,2,0.7883
11,45,1,2,2,1,2,0.6753,1,1,0.7231
11,46,2,1,2,0,1,0.7094,2,2,1.1411
11,47,2,1,2,0,1,0.6869,2,2,0.6707
11,48,2,2,2,1,2,0.7511,1,1,0.9269
11,49,1,2,1,0,2,0.6322,1,1,0.744
11,50,2,2,1,0,2,0.5618,2,2,1.1856
11,51,1,1,2,0,1,0.713,1,1,0.6968
11,52,1,2,1,0,2,0.6779,1,1,0.5977
11,53,2,2,1,0,2,0.5685,1,1,1.0642
11,54,1,2,1,0,2,0.6284,2,2,1.5722
11,55,2,1,2,0,1,0.6944,2,1,1.1262
11,56,1,1,2,0,1,0.6675,1,1,0.7152
11,57,2,1,1,1,1,0.6324,2,2,0.7442
11,58,2,2,1,0,2,0.6782,1,1,1.046
11,59,2,1,1,1,1,0.6101,1,1,1.2979
11,60,1,1,2,0,1,0.487,1,1,0.8547
11,61,1,1,2,0,1,0.6307,2,7,7
11,62,2,2,1,0,2,0.717,2,2,0.8287
11,63,1,1,1,1,1,0.6922,1,1,1.124
11,64,1,1,1,1,1,0.6293,2,2,0.8691
11,65,2,1,2,0,1,0.5258,2,2,0.6376
11,66,2,2,2,1,2,0.6799,2,2,0.5356
11,67,2,2,2,1,2,0.6175,2,2,0.5373
11,68,1,1,2,0,1,0.6713,2,2,1.1031
11,69,2,2,1,0,2,0.632,2,2,0.9357
11,70,1,2,1,0,2,0.658,1,2,1.4738
11,71,2,1,1,1,1,0.6621,2,2,0.8379
11,72,1,1,2,0,1,0.8176,2,2,0.5454
11,73,2,1,2,0,1,0.6795,2,2,0.5352
11,74,1,1,1,1,1,0.6288,1,1,0.9326
11,75,2,2,2,1,1,0.6144,2,2,0.7831
11,76,2,1,1,1,1,0.6819,1,2,0.8576
11,77,1,2,2,1,2,0.71,2,2,0.4378
11,78,2,1,2,0,1,0.8815,2,2,1.1213
11,79,2,1,2,0,1,0.7546,1,1,0.9304
11,80,1,1,1,1,1,0.752,1,1,0.8638
11,81,1,2,2,1,2,0.6161,2,2,0.856
11,82,1,1,1,1,1,0.7481,1,1,0.4759
11,83,1,2,2,1,2,0.6805,1,1,0.4723
11,84,1,1,1,1,1,0.6248,2,2,1.3766
11,85,1,1,1,1,1,0.687,2,2,0.7988
11,86,2,2,2,1,2,0.7498,2,2,0.5416
11,87,2,1,2,0,1,0.6874,2,2,0.7992
11,88,1,2,1,0,2,0.7384,1,1,0.9142
11,89,2,2,1,0,2,0.6835,2,2,0.6033
11,90,1,2,1,0,2,0.6146,2,2,0.7263
11,91,1,1,2,0,1,0.7126,2,1,0.9524
11,92,1,2,2,1,2,0.7225,1,1,0.6423
11,93,1,1,2,0,1,0.5019,1,1,0.7417
11,94,2,1,1,1,1,0.6875,2,2,0.6713
11,95,1,1,2,0,2,1.0718,1,1,0.6535
11,96,1,1,1,1,1,1.4144,1,1,0.8862
11,97,1,2,1,0,2,0.6797,2,2,0.4074
11,98,1,1,2,0,1,0.6003,2,2,0.7761
11,99,2,1,2,0,1,0.5468,1,1,2.1946
11,100,2,1,2,0,1,0.7572,1,1,1.061
11,101,2,1,2,0,1,0.8172,1,1,1.1209
11,102,2,1,1,1,1,0.6262,2,2,1.122
11,103,1,1,1,1,1,0.6796,2,2,1.0474
11,104,2,1,2,0,1,0.7395,1,2,1.8753
11,105,1,2,2,1,2,0.5614,1,2,0.5452
11,106,1,2,1,0,2,0.6447,2,2,0.6285
11,107,1,1,1,1,1,0.692,2,2,0.8037
11,108,1,2,1,0,2,0.615,2,2,0.7267
11,109,1,1,1,1,1,0.5041,1,1,0.6159
11,110,1,2,1,0,2,0.6271,2,2,0.5469
11,111,2,1,2,0,1,0.553,2,2,0.5368
11,112,1,1,1,1,1,0.6826,1,1,1.3704
11,113,2,2,1,0,2,0.6286,2,1,1.0604
11,114,1,1,2,0,1,0.6252,2,2,0.5451
11,115,1,1,2,0,1,0.7078,2,2,1.2676
11,116,2,1,1,1,1,0.6199,2,2,1.0517
11,117,1,1,1,1,1,0.6159,1,1,0.8556
11,118,1,2,2,1,2,0.6772,1,1,0.661
11,119,2,1,1,1,1,0.6252,1,1,0.8649
11,120,2,2,2,1,2,0.5651,1,1,1.1249
11,121,1,1,2,0,1,0.6302,2,2,0.55
11,122,2,2,2,1,2,0.5678,2,2,0.9356
11,123,2,1,2,0,1,0.6292,1,1,1.1249
11,124,2,2,2,1,2,0.6302,2,2,0.87
11,125,1,1,1,1,1,0.7386,2,2,0.7864
11,126,1,1,2,0,1,0.5572,1,1,1.565
11,127,2,2,2,1,2,0.6923,1,1,0.9322
11,128,2,1,2,0,1,0.5499,1,1,1.8777
11,129,2,2,2,1,2,0.6119,1,1,0.9156
11,130,2,2,1,0,2,0.6233,1,1,0.7991
11,131,2,2,1,0,2,0.4941,1,1,0.7978
11,132,2,1,2,0,1,0.6326,2,2,0.9364
11,133,2,1,2,0,1,0.5019,1,1,0.8057
11,134,2,1,1,1,1,0.489,2,2,0.8567
11,135,1,2,2,1,2,0.6327,1,1,1.1284
11,136,1,1,1,1,1,0.622,1,1,0.6698
11,137,1,1,1,1,1,0.7958,2,2,0.6516
11,138,2,2,1,0,2,0.7438,1,2,0.7916
11,139,2,1,1,1,1,0.5866,1,1,0.6984
11,140,2,1,1,1,1,0.5515,1,1,0.7912
11,141,2,2,1,0,2,0.6547,1,1,0.7665
11,142,1,2,1,0,2,0.7528,1,1,0.6726
11,143,1,2,2,1,2,0.561,1,1,0.6088
11,144,2,2,1,0,2,0.62,2,1,0.6038
11,145,1,1,1,1,1,0.6628,2,2,0.9026
11,146,2,1,1,1,1,0.6955,2,2,0.9352
11,147,2,1,1,1,1,0.617,2,2,0.6648
11,148,1,2,1,0,2,0.7335,1,1,0.5892
11,149,1,1,1,1,1,0.6763,1,1,0.66
11,150,1,2,1,0,2,0.8044,1,1,0.5962
11,151,2,2,1,0,2,0.5553,1,2,1.051
11,152,1,2,1,0,2,0.6564,1,1,0.7681
11,153,2,2,2,1,2,0.5624,1,2,0.8662
11,154,1,1,1,1,1,0.6024,2,2,1.2902
11,155,1,1,2,0,1,0.6307,1,1,1.4465
11,156,1,1,2,0,1,0.6864,2,2,1.3102
11,157,2,1,1,1,1,0.5632,1,1,0.739
11,158,2,1,2,0,1,0.6326,1,2,0.8084
11,159,2,1,1,1,1,0.5276,2,2,0.9595
11,160,1,1,2,0,1,0.4896,2,2,0.7294
11,161,1,2,1,0,2,0.6946,2,2,0.5504
11,162,2,2,1,0,2,0.5353,1,1,0.775
11,163,1,1,1,1,1,0.6738,2,2,0.7856
11,164,2,1,1,1,1,0.538,2,2,0.7137
11,165,1,2,1,0,2,0.6309,1,1,1.0626
11,166,2,2,2,1,2,0.6908,1,1,2.7226
11,167,1,2,2,1,2,0.5637,2,2,0.4195
11,168,2,2,1,0,2,0.5667,1,1,1.2545
11,169,2,2,2,1,2,0.4384,2,2,0.8062
11,170,1,2,1,0,2,0.5534,2,2,0.8572
11,171,2,2,1,0,2,0.5456,2,2,0.7854
11,172,2,2,2,1,2,0.4281,1,1,0.8599
11,173,1,1,1,1,1,0.577,1,1,0.7528
11,174,2,2,1,0,1,0.4713,1,1,0.8452
11,175,2,2,1,0,2,0.4173,1,2,0.6571
11,176,2,1,1,1,1,0.6691,1,1,0.9088
11,177,1,2,2,1,2,0.5619,2,2,0.5457
11,178,1,1,2,0,1,0.6915,2,2,1.9553
11,179,2,1,1,1,1,0.6253,1,2,0.865
11,180,2,2,1,0,2,0.6652,2,2,0.713
11,181,1,2,2,1,2,0.5021,2,2,0.4859
11,182,2,1,2,0,1,0.6788,1,1,1.1106
11,183,2,2,2,1,2,0.6799,2,2,0.6637
11,184,2,1,1,1,1,0.6801,1,1,0.9199
11,185,1,2,2,1,2,0.6134,2,2,0.5332
11,186,1,1,2,0,1,0.615,1,1,0.5988
11,187,1,2,2,1,2,0.6101,2,2,1.1699
11,188,1,2,2,1,2,0.4243,2,2,0.5361
11,189,1,2,2,1,2,0.5658,2,2,0.5495
11,190,1,1,1,1,1,0.6953,2,2,0.4871
11,191,2,1,1,1,1,0.5638,1,2,0.9316
11,192,2,1,1,1,1,0.6612,1,1,1.1569
12,1,1,2,1,0,2,1.1472,1,1,0.5551
12,2,2,1,1,1,1,0.514,2,2,0.7539
12,3,2,2,2,1,1,1.3801,2,1,0.72
12,4,1,2,2,1,2,0.6975,2,2,0.5533
12,5,2,1,1,1,1,1.1994,2,2,0.7352
12,6,2,2,1,0,2,0.6928,2,2,0.8685
12,7,1,2,2,1,2,0.7607,2,2,0.4885
12,8,1,2,1,0,2,1.0772,2,2,0.4849
12,9,1,1,2,0,1,0.6256,2,2,0.5454
12,10,1,2,2,1,2,0.7552,1,1,0.739
12,11,1,1,1,1,1,1.2086,2,2,0.4884
12,12,2,2,1,0,2,0.8211,2,2,0.4848
12,13,1,2,2,1,2,0.7535,1,1,0.5453
12,14,1,1,1,1,2,0.8191,1,2,0.7237
12,15,1,1,2,0,2,1.1131,2,2,0.4676
12,16,2,1,2,0,1,1.2078,2,1,0.7436
12,17,1,2,1,0,2,1.0454,2,2,0.5172
12,18,2,2,1,0,2,1.0066,1,1,0.7344
12,19,2,1,2,0,1,1.1399,2,2,0.6757
12,20,1,2,2,1,2,1.2851,2,2,0.6929
12,21,1,1,2,0,1,1.442,2,2,0.5938
12,22,2,2,2,1,2,1.5128,1,1,0.6646
12,23,2,2,2,1,2,0.681,1,1,0.5368
12,24,2,1,2,0,1,1.1593,2,2,0.5671
12,25,2,1,2,0,1,1.0616,2,1,0.9814
12,26,2,1,1,1,1,0.9082,2,2,0.6359
12,27,1,2,2,1,2,1.0716,2,2,0.4794
12,28,2,1,2,0,1,1.2078,1,1,0.5516
12,29,2,1,1,1,1,0.8255,2,2,0.6172
12,30,1,1,1,1,1,0.8727,2,2,0.6005
12,31,1,2,1,0,2,1.2518,2,2,0.4675
12,32,1,2,1,0,2,1.0797,1,1,0.8076
12,33,1,2,1,0,2,0.7042,1,1,0.944
12,34,1,1,1,1,1,1.0738,2,2,0.4815
12,35,2,1,2,0,1,0.9422,1,1,0.606
12,36,1,1,1,1,1,0.9777,1,1,0.7695
12,37,1,1,1,1,1,0.808,1,1,0.5358
12,38,1,1,2,0,1,1.2863,1,1,0.6941
12,39,1,1,1,1,1,0.815,2,2,0.6708
12,40,2,2,2,1,2,1.0712,1,1,0.607
12,41,2,1,2,0,1,1.014,1,1,0.6138
12,42,2,2,2,1,2,1.009,2,2,0.7368
12,43,2,2,1,0,2,1.1306,1,1,0.5384
12,44,2,2,1,0,2,0.7482,2,2,0.796
12,45,1,2,1,0,2,1.003,1,1,0.4748
12,46,2,1,1,1,1,0.9472,1,1,0.547
12,47,2,1,2,0,1,0.9489,1,1,0.7406
12,48,1,2,1,0,2,1.3265,2,2,0.6062
12,49,2,1,2,0,1,0.8852,2,1,0.741
12,50,2,2,2,1,2,0.9671,2,2,1.0149
12,51,2,1,2,0,1,0.9343,2,2,0.7261
12,52,2,1,1,1,1,1.1722,1,1,0.5799
12,53,2,1,2,0,1,1.2025,1,1,0.6743
12,54,2,2,1,0,2,1.0107,2,2,0.9945
12,55,1,2,1,0,2,1.0772,1,1,0.677
12,56,1,2,1,0,2,0.7574,2,2,0.4212
12,57,1,1,1,1,2,0.8767,2,2,0.4665
12,58,1,1,2,0,1,1.2589,2,2,1.4347
12,59,1,2,1,0,2,1.1865,1,1,0.6584
12,60,2,1,2,0,1,0.8027,2,1,0.9146
12,61,1,2,2,1,2,0.8596,2,2,0.7794
12,62,2,1,1,1,1,0.7539,1,1,0.9297
12,63,1,1,1,1,1,1.1993,2,2,0.4791
12,64,2,2,2,1,2,0.8875,1,1,1.2553
12,65,1,2,1,0,2,1.2293,1,1,0.5732
12,66,1,1,1,1,1,1.0677,1,1,0.9235
12,67,1,1,2,0,1,0.873,1,1,0.6008
12,68,2,2,2,1,2,0.996,1,1,0.7238
12,69,1,1,1,1,1,0.9492,1,1,0.869
12,70,1,1,2,0,1,1.0811,1,2,0.8729
12,71,1,2,1,0,2,0.9813,1,1,0.7091
12,72,2,1,1,1,1,0.6667,2,2,0.5864
12,73,2,1,2,0,1,0.8773,1,1,0.541
12,74,1,2,2,1,2,1.0591,2,2,0.4669
12,75,1,2,2,1,2,0.8753,1,1,1.1151
12,76,2,2,1,0,2,1.0162,1,1,1.2559
12,77,2,1,1,1,1,1.2718,1,1,0.8076
12,78,2,1,1,1,1,0.7586,2,1,0.6144
12,79,2,1,2,0,1,0.8536,1,1,0.5814
12,80,1,2,2,1,2,0.7442,1,1,0.6
12,81,1,2,2,1,2,1.2159,2,2,0.4957
12,82,1,2,2,1,2,0.9968,1,1,0.5966
12,83,2,2,2,1,2,0.7646,2,2,0.8124
12,84,1,1,1,1,1,0.8678,1,1,0.5316
12,85,2,2,2,1,2,0.7532,1,1,0.481
12,86,1,2,1,0,2,0.8894,2,2,0.5532
12,87,2,1,1,1,1,0.8153,1,1,0.479
12,88,2,1,2,0,1,0.8757,2,2,0.7315
12,89,1,2,1,0,2,1.282,2,2,0.8178
12,90,1,2,2,1,2,0.8093,1,1,0.7931
12,91,1,1,2,0,1,1.2561,1,1,0.4718
12,92,2,1,1,1,1,0.8685,1,1,0.7883
12,93,2,2,2,1,2,0.8151,2,2,1.4388
12,94,1,2,1,0,2,0.7544,2,2,0.6743
12,95,2,1,1,1,1,0.8186,2,2,0.7384
12,96,1,1,2,0,1,1.3882,1,1,0.924
12,97,2,1,1,1,1,0.7836,2,2,0.8954
12,98,2,1,2,0,1,0.8854,2,2,0.9972
12,99,1,1,2,0,1,1.0681,2,2,0.6679
12,100,1,1,1,1,1,0.6961,2,2,0.4879
12,101,2,1,1,1,1,0.6925,1,1,0.7404
12,102,1,2,2,1,2,1.3901,1,1,0.7339
12,103,1,1,1,1,1,0.8195,2,2,0.6754
12,104,2,2,2,1,2,0.8249,1,1,0.7447
12,105,1,1,2,0,1,0.9347,2,2,0.7905
12,106,1,1,2,0,1,1.1255,2,2,0.5333
12,107,2,2,2,1,2,1.2669,2,2,0.6107
12,108,1,2,2,1,2,1.0059,2,2,0.5417
12,109,2,2,1,0,2,0.8795,1,1,0.7993
12,110,2,2,1,0,2,0.8143,1,1,0.7341
12,111,1,1,1,1,1,0.9999,2,2,0.5357
12,112,1,1,2,0,1,0.7978,1,1,0.5255
12,113,1,1,2,0,1,0.8111,2,2,0.6029
12,114,2,1,1,1,1,0.8062,1,1,0.9819
12,115,1,2,2,1,2,1.2567,1,1,0.6005
12,116,1,2,2,1,2,0.7397,1,1,0.5315
12,117,2,1,1,1,1,0.8694,2,1,1.1732
12,118,2,1,1,1,1,0.7314,1,1,0.7152
12,119,2,1,2,0,1,1.0163,1,1,0.7441
12,120,1,1,2,0,1,0.7421,2,2,0.5339
12,121,1,2,1,0,2,1.2035,1,1,0.6113
12,122,2,2,2,1,2,0.9425,1,1,1.0543
12,123,2,2,2,1,2,0.7582,2,1,0.678
12,124,2,2,1,0,2,1.1785,1,1,0.7782
12,125,2,2,2,1,2,0.7409,2,2,0.7887
12,126,1,1,2,0,1,0.9317,2,2,0.9795
12,127,2,2,1,0,2,0.882,1,2,1.1218
12,128,1,2,2,1,2,0.689,2,2,1.0568
12,129,1,2,2,1,2,0.5716,1,1,0.4915
12,130,1,1,2,0,1,0.8123,2,2,0.5401
12,131,2,2,2,1,2,0.878,2,2,0.6697
12,132,1,2,2,1,2,0.8782,1,1,0.99
12,133,1,1,2,0,1,0.6887,2,2,0.9924
12,134,1,2,1,0,2,1.7034,1,1,0.8552
12,135,2,1,2,0,1,0.7591,2,1,0.5509
12,136,1,1,1,1,1,0.913,2,2,0.6408
12,137,2,2,1,0,2,0.9367,2,2,0.7925
12,138,2,1,1,1,2,0.5685,1,1,0.6561
12,139,1,2,2,1,2,1.5803,2,2,0.988
12,140,1,2,2,1,2,0.8671,2,2,0.6589
12,141,1,1,2,0,1,1.007,1,1,0.6708
12,142,1,2,1,0,2,1.0712,1,1,0.543
12,143,2,2,2,1,2,0.9449,2,2,0.9286
12,144,1,2,1,0,2,0.8782,2,2,0.734
12,145,2,2,1,0,2,0.8196,1,1,0.6113
12,146,2,2,1,0,2,0.8669,1,1,0.6586
12,147,1,2,2,1,2,0.9598,1,1,0.6875
12,148,2,2,2,1,2,0.8724,1,1,0.6642
12,149,2,1,1,1,1,0.8086,1,1,0.9844
12,150,2,2,1,0,1,0.9391,2,2,0.7261
12,151,1,2,1,0,2,1.0037,2,2,0.6034
12,152,1,1,2,0,1,0.8707,1,1,0.6625
12,153,2,1,1,1,1,0.8826,1,1,0.6744
12,154,2,2,1,0,2,1.0108,1,1,0.7386
12,155,1,2,1,0,2,1.3362,2,2,0.552
12,156,1,1,1,1,1,0.8023,1,1,0.9141
12,157,1,1,1,1,1,0.7592,1,1,0.743
12,158,2,2,2,1,2,1.3928,2,1,0.9926
12,159,2,1,2,0,1,0.8605,1,1,0.6523
12,160,1,2,1,0,2,1.3204,1,1,0.4082
12,161,2,1,2,0,1,0.8962,1,1,0.56
12,162,1,1,1,1,1,0.9487,1,2,1.2524
12,163,2,2,1,0,2,0.8615,2,2,0.7813
12,164,2,1,2,0,1,1.4767,2,1,0.7565
12,165,1,1,1,1,1,0.7906,2,2,0.5824
12,166,1,1,2,0,1,0.8732,1,1,0.6649
12,167,2,1,2,0,1,0.8851,1,1,0.8049
12,168,1,1,1,1,1,0.7559,1,1,0.5477
12,169,1,1,2,0,1,0.8098,1,1,0.4736
12,170,2,1,2,0,1,0.8702,1,1,0.598
12,171,2,2,2,1,2,0.685,2,1,0.5408
12,172,1,1,1,1,1,0.9029,1,1,0.8227
12,173,2,2,1,0,2,0.9304,1,1,0.7862
12,174,2,2,1,0,2,0.8651,2,2,0.7209
12,175,2,1,2,0,1,1.4583,2,2,1.378
12,176,1,1,2,0,1,0.8165,1,1,0.4803
12,177,2,2,2,1,2,0.6967,1,1,0.6805
12,178,2,1,1,1,1,0.7609,2,1,0.6167
12,179,2,2,1,0,2,1.2399,2,2,1.2237
12,180,1,1,2,0,1,0.8151,1,1,0.6069
12,181,1,2,2,1,2,0.8389,2,2,0.7587
12,182,2,2,1,0,2,0.8089,2,2,0.7928
12,183,2,2,1,0,2,0.8077,1,1,1.0475
12,184,2,2,2,1,2,0.7396,1,1,0.6594
12,185,2,2,1,0,2,0.8038,2,2,0.5956
12,186,2,2,1,0,2,0.7584,2,1,1.3182
12,187,1,1,1,1,1,0.7235,2,2,0.7712
12,188,2,1,1,1,1,0.8216,2,2,1.0613
12,189,2,1,1,1,1,0.6255,2,2,1.1212
12,190,1,1,1,1,1,0.7545,1,1,0.9303
12,191,2,2,2,1,2,0.8159,1,1,1.0557
12,192,1,2,1,0,2,0.8118,2,2,0.6676
13,1,1,1,1,1,2,0.8236,1,1,0.5245
13,2,1,2,2,1,2,1.0139,1,1,1.0616
13,3,2,1,2,0,1,0.7302,1,1,1.034
13,4,2,2,2,1,7,7,1,1,1.0777
13,5,1,2,1,0,2,0.8973,1,1,1.0731
13,6,1,2,1,0,1,0.9455,1,1,0.7207
13,7,1,1,2,0,1,0.6901,1,1,0.8658
13,8,2,2,1,0,2,1.846,1,1,0.9337
13,9,2,1,1,1,1,0.9525,1,1,0.7443
13,10,2,1,2,0,1,0.8821,2,2,0.6099
13,11,1,2,1,0,2,0.8889,1,1,0.9366
13,12,1,1,1,1,1,0.8222,1,1,0.87
13,13,1,1,1,1,1,0.7504,1,2,0.8622
13,14,2,2,1,0,2,0.8544,1,2,0.8381
13,15,2,1,1,1,1,0.6618,2,1,0.6456
13,16,2,1,1,1,1,0.7333,2,1,0.8451
13,17,2,2,1,0,2,0.8608,2,2,0.9086
13,18,2,2,1,0,2,0.8177,2,1,0.6735
13,19,2,1,2,0,1,0.7899,2,2,1.0937
13,20,2,1,2,0,1,0.8028,1,2,0.8506
13,21,2,1,1,1,1,0.9237,2,2,1.2275
13,22,2,2,2,1,2,0.8071,1,1,1.2389
13,23,2,2,2,1,2,0.8068,2,1,0.9185
13,24,1,1,1,1,2,0.9093,1,1,0.8478
13,25,2,1,2,0,1,1.444,2,2,1.1718
13,26,2,1,1,1,1,0.8624,2,2,1.1022
13,27,1,2,2,1,2,0.7878,2,2,0.8996
13,28,2,2,2,1,2,0.7564,1,1,0.9322
13,29,2,1,2,0,1,1.2659,2,2,1.6335
13,30,2,1,1,1,1,0.7491,2,2,0.8609
13,31,1,1,2,0,1,0.9973,1,1,0.7251
13,32,1,2,1,0,2,1.1425,2,2,1.1902
13,33,1,1,2,0,1,0.7619,2,2,0.6177
13,34,2,1,1,1,2,0.821,2,2,0.8536
13,35,1,1,2,0,1,0.8216,1,1,0.6773
13,36,1,2,2,1,2,0.7107,1,2,0.5664
13,37,2,2,1,0,2,0.8528,2,2,1.2206
13,38,2,1,2,0,1,0.812,1,1,0.7948
13,39,2,1,1,1,1,0.7585,2,2,0.7423
13,40,2,1,2,0,1,0.7519,1,1,0.7999
13,41,2,2,1,0,2,0.7509,1,1,1.0547
13,42,1,1,2,0,1,0.6306,1,1,0.8064
13,43,2,2,2,1,2,0.6816,1,1,1.6253
13,44,1,2,1,0,2,0.7292,2,2,0.905
13,45,1,2,1,0,2,0.9068,1,1,1.9146
13,46,1,2,1,0,2,0.8235,2,2,0.6793
13,47,1,2,1,0,2,0.684,2,2,0.4758
13,48,2,2,2,1,2,0.6922,2,2,0.74
13,49,1,2,2,1,2,0.802,2,2,0.5298
13,50,1,2,1,0,2,0.7396,1,1,1.0435
13,51,1,1,1,1,1,0.8113,1,1,0.6031
13,52,2,2,1,0,2,0.8351,2,1,0.8829
13,53,2,1,2,0,1,0.8515,1,1,1.0273
13,54,1,1,2,0,1,0.8188,2,2,0.9305
13,55,1,1,2,0,1,0.816,2,2,0.7358
13,56,2,1,1,1,1,0.6816,1,1,0.8575
13,57,2,2,1,0,2,0.7496,1,1,1.3734
13,58,2,1,1,1,1,0.7479,1,1,1.1156
13,59,2,2,2,1,2,0.8012,2,2,0.5929
13,60,1,2,2,1,2,0.7557,1,1,1.1235
13,61,1,1,2,0,1,0.7568,1,1,0.5486
13,62,2,2,2,1,2,0.8864,2,2,1.1262
13,63,1,1,2,0,1,0.6955,1,1,0.6793
13,64,2,2,1,0,1,0.9046,2,1,0.8549
13,65,2,1,1,1,1,0.7801,1,1,0.6999
13,66,1,2,2,1,2,0.8899,2,2,1.5777
13,67,2,1,2,0,1,0.6764,2,2,0.6602
13,68,2,1,2,0,1,0.7053,2,2,0.7531
13,69,1,1,2,0,1,0.7511,2,2,0.6709
13,70,2,1,2,0,1,0.8153,2,2,1.1831
13,71,2,1,2,0,1,0.8216,1,1,1.0614
13,72,1,1,1,1,1,0.7064,2,2,0.8822
13,73,2,2,2,1,2,0.8671,1,1,1.0428
13,74,2,1,1,1,1,1.5788,1,2,0.7945
13,75,2,2,2,1,2,0.7933,2,2,0.7771
13,76,2,2,2,1,2,0.5765,2,2,0.7523
13,77,2,2,2,1,2,0.7386,1,2,0.8504
13,78,2,1,1,1,1,0.7903,2,1,0.7101
13,79,2,2,1,0,2,0.7795,1,2,1.4033
13,80,2,2,2,1,2,0.8161,2,2,0.7998
13,81,1,1,1,1,1,0.7391,2,2,0.4669
13,82,2,2,1,0,2,0.8113,2,2,0.8591
13,83,1,1,1,1,1,0.7395,2,2,1.1712
13,84,2,2,2,1,2,0.6935,2,2,1.0613
13,85,1,2,2,1,2,0.9454,1,1,1.2492
13,86,2,2,1,0,2,1.2011,2,2,0.6729
13,87,1,1,1,1,1,1.5095,1,1,0.9173
13,88,1,2,2,1,2,0.5757,1,1,0.5593
13,89,1,1,1,1,1,0.7457,2,2,0.4094
13,90,1,2,1,0,2,0.6847,2,2,0.6045
13,91,1,2,2,1,2,0.8077,2,2,2.0075
13,92,2,2,2,1,2,0.5664,2,1,1.0621
13,93,1,1,2,0,1,0.9823,2,2,0.7101
13,94,2,2,1,0,2,0.8832,2,2,0.867
13,95,2,1,2,0,1,0.7473,1,1,1.3071
13,96,2,2,2,1,2,0.7405,2,2,0.9802
13,97,1,2,1,0,2,0.8648,2,2,1.2965
13,98,1,2,1,0,2,1.2757,2,2,1.1955
13,99,2,2,1,0,2,1.0664,2,2,0.7302
13,100,1,2,2,1,2,0.612,1,2,0.6598
13,101,2,1,1,1,1,0.788,1,1,0.7078
13,102,2,1,1,1,1,0.7411,1,1,0.8529
13,103,2,2,1,0,2,0.8091,2,2,0.5369
13,104,2,2,1,0,2,0.7467,1,1,0.6024
13,105,1,1,1,1,1,0.858,1,1,0.7777
13,106,2,2,2,1,2,0.7405,1,1,0.5323
13,107,1,2,2,1,2,0.8348,2,2,0.4346
13,108,1,1,1,1,1,0.7503,2,2,1.1821
13,109,2,1,1,1,1,0.6926,1,1,0.7404
13,110,1,2,2,1,2,0.7384,2,2,0.5942
13,111,2,2,1,0,2,0.8379,2,1,0.6937
13,112,2,2,2,1,2,0.8388,1,1,0.8226
13,113,1,2,1,0,2,0.9304,1,1,1.5541
13,114,1,1,1,1,7,7,1,1,0.8763
13,115,1,2,2,1,2,0.7097,1,1,1.8454
13,116,2,1,1,1,1,0.7492,2,2,0.861
13,117,2,1,1,1,1,1.0614,1,1,0.7252
13,118,1,2,1,0,2,0.6945,2,1,0.6784
13,119,1,2,2,1,2,1.0508,1,1,0.7786
13,120,2,2,2,1,2,0.8171,1,1,0.6089
13,121,1,2,1,0,2,0.8761,2,2,0.9879
13,122,1,2,1,0,2,1.3788,1,1,0.9786
13,123,1,1,2,0,1,0.7414,2,2,0.7892
13,124,1,2,1,0,2,0.7924,1,1,0.5202
13,125,2,1,2,0,1,0.8058,2,2,0.6615
13,126,2,1,2,0,1,0.742,2,2,0.6617
13,127,1,1,2,0,1,0.7304,1,1,0.9702
13,128,1,1,2,0,1,0.7447,2,2,0.7284
13,129,2,1,1,1,1,0.6486,2,2,0.8244
13,130,2,1,2,0,1,0.7048,2,2,0.6246
13,131,2,1,1,1,1,0.6763,2,2,0.9161
13,132,1,1,2,0,1,0.6972,1,1,0.6809
13,133,1,1,1,1,1,0.6974,2,2,0.7451
13,134,1,2,1,0,2,0.755,2,2,0.6107
13,135,1,2,2,1,2,1.1222,2,2,0.722
13,136,2,1,2,0,1,0.7436,1,1,0.5994
13,137,2,2,1,0,2,0.9306,1,2,1.0424
13,138,1,1,1,1,1,0.8346,2,2,0.8823
13,139,1,1,2,0,1,0.6634,1,1,0.9032
13,140,2,2,1,0,2,0.8123,1,1,0.7321
13,141,1,1,1,1,1,0.8817,2,2,1.5055
13,142,1,1,2,0,1,0.7505,1,1,1.6943
13,143,1,2,2,1,2,0.815,2,2,0.7348
13,144,1,2,2,1,2,1.7164,2,2,0.8682
13,145,1,2,2,1,2,0.6963,2,2,0.6161
13,146,1,1,1,1,1,0.7554,2,2,0.5472
13,147,2,1,2,0,1,0.7335,2,2,0.7173
13,148,1,2,2,1,2,0.9308,1,1,0.6586
13,149,1,1,1,1,1,0.675,1,1,1.0428
13,150,2,2,2,1,2,0.8107,2,2,0.6665
13,151,2,2,2,1,2,0.6999,2,2,0.8756
13,152,2,1,2,0,1,0.756,1,1,0.6758
13,153,1,2,1,0,2,0.7562,1,1,0.932
13,154,2,2,1,0,2,0.7536,1,2,0.9933
13,155,1,2,2,1,2,1.4321,2,1,0.7759
13,156,2,1,2,0,1,0.7864,1,1,0.7062
13,157,2,1,1,1,1,0.8153,2,2,0.6711
13,158,1,1,1,1,1,0.6757,2,2,0.8515
13,159,1,1,2,0,1,0.7437,2,2,1.0475
13,160,1,2,1,0,2,0.9316,2,2,0.6594
13,161,2,1,2,0,1,0.7008,2,2,1.1966
13,162,1,1,1,1,1,0.7329,1,1,1.3567
13,163,1,2,2,1,1,0.807,2,1,0.9153
13,164,1,1,2,0,1,0.7494,2,2,0.4132
13,165,2,2,1,0,2,0.7407,2,1,0.5325
13,166,1,1,1,1,1,0.8541,1,1,1.7339
13,167,2,1,1,1,1,0.8833,1,1,0.4831
13,168,1,1,1,1,1,0.6878,2,2,0.7356
13,169,2,2,2,1,2,0.6292,1,1,0.8689
13,170,2,1,1,1,1,0.8773,1,1,0.5411
13,171,2,1,2,0,1,0.7392,1,2,0.659
13,172,1,2,1,0,2,0.7114,2,2,0.4392
13,173,1,2,2,1,2,0.8072,1,1,0.7909
13,174,1,2,1,0,2,0.9979,1,1,0.5977
13,175,1,2,1,0,2,0.7892,1,1,0.517
13,176,1,1,2,0,1,0.8143,1,1,0.9261
13,177,2,2,1,0,2,0.8875,1,1,0.7432
13,178,2,1,1,1,1,1.265,1,1,0.8648
13,179,1,1,1,1,1,0.821,2,2,0.8048
13,180,1,1,2,0,1,0.736,1,1,0.7198
13,181,1,2,1,0,2,0.8576,1,1,0.7134
13,182,2,2,2,1,2,0.8107,1,1,0.7305
13,183,1,1,1,1,1,0.769,1,1,1.5208
13,184,1,2,2,1,2,0.6783,1,1,0.7901
13,185,1,1,2,0,1,0.8338,2,2,1.2016
13,186,2,1,2,0,1,0.6885,1,1,0.7363
13,187,2,2,1,0,2,0.7579,1,1,0.7416
13,188,2,2,1,0,2,0.8154,1,1,1.7592
13,189,1,1,2,0,1,0.6814,2,2,0.9212
13,190,2,2,2,1,2,0.7545,1,2,0.9943
13,191,1,1,2,0,1,0.6651,2,2,0.7768
13,192,1,2,2,1,2,0.6116,1,1,0.7234
14,1,2,1,1,1,2,0.6223,1,1,0.8433
14,2,1,2,2,1,2,0.6215,2,2,0.8613
14,3,1,1,1,1,1,0.6137,1,1,1.1095
14,4,2,2,1,0,2,0.667,2,2,1.2268
14,5,1,2,2,1,2,0.6144,1,1,0.7902
14,6,2,2,2,1,2,0.5374,2,2,0.9052
14,7,1,2,2,1,2,0.6105,2,2,0.8503
14,8,1,1,2,0,2,0.5909,1,1,0.8471
14,9,2,1,2,0,1,0.6113,2,1,0.8511
14,10,2,2,1,0,2,0.7439,1,1,0.9197
14,11,1,1,1,1,2,0.6773,1,1,0.9151
14,12,2,2,2,1,2,0.7367,1,1,0.7845
14,13,2,2,2,1,2,0.7472,2,2,1.435
14,14,1,1,1,1,1,1.2509,1,1,0.8506
14,15,2,2,2,1,2,0.8068,1,1,0.7906
14,16,2,2,1,0,2,0.6893,2,1,0.8651
14,17,2,1,1,1,1,0.8455,1,1,1.5973
14,18,1,2,2,1,2,0.6489,2,2,0.5687
14,19,2,2,1,0,2,0.8072,1,1,0.791
14,20,2,1,2,0,1,0.806,1,1,0.9178
14,21,2,1,1,1,1,1.0594,2,2,0.9791
14,22,1,2,2,1,2,0.8346,1,1,0.6264
14,23,1,1,2,0,1,0.6898,2,2,0.7376
14,24,2,2,2,1,2,0.7592,2,2,1.255
14,25,1,1,2,0,1,0.7471,2,2,0.7949
14,26,1,2,1,0,2,0.7459,1,1,0.7936
14,27,2,2,1,0,2,0.9366,2,1,0.9204
14,28,1,1,1,1,1,0.778,2,2,0.6978
14,29,2,1,2,0,1,0.7429,1,1,0.8547
14,30,2,1,1,1,1,0.7586,2,2,0.6784
14,31,2,2,1,0,2,1.2708,2,2,1.1906
14,32,2,1,2,0,1,0.6775,1,1,1.1093
14,33,1,1,2,0,1,0.94,2,2,0.6679
14,34,1,2,1,0,2,0.713,1,1,1.2727
14,35,1,2,1,0,2,0.6773,1,1,0.5331
14,36,1,2,1,0,2,0.6149,2,2,0.5347
14,37,1,2,2,1,2,0.4886,1,1,0.7923
14,38,2,1,2,0,2,0.5513,2,2,1.6866
14,39,2,2,1,0,2,0.8191,1,1,0.803
14,40,1,2,1,0,2,0.7591,2,2,0.5509
14,41,1,2,1,0,2,0.8129,1,1,0.8607
14,42,1,2,2,1,2,0.8051,1,7,7
14,43,1,2,2,1,2,0.6561,1,1,0.7039
14,44,1,2,2,1,2,0.6144,2,2,0.5982
14,45,2,1,1,1,2,0.5689,1,1,0.7847
14,46,2,2,1,0,2,0.6952,2,2,1.063
14,47,2,1,1,1,1,0.7434,2,2,0.7271
14,48,2,1,2,0,1,0.7774,1,1,0.8252
14,49,1,2,2,1,2,0.6769,2,2,0.5327
14,50,1,1,2,0,1,0.8065,2,2,1.4943
14,51,2,2,2,1,2,0.6113,1,1,1.2351
14,52,2,1,1,1,1,0.6868,1,2,0.5425
14,53,2,1,2,0,1,0.8524,2,2,1.4122
14,54,2,1,1,1,1,0.6873,1,2,1.0551
14,55,1,1,2,0,1,0.6553,1,1,0.767
14,56,2,2,2,1,2,0.8225,2,1,1.3183
14,57,1,2,2,1,2,0.7758,2,2,0.9516
14,58,1,1,2,0,1,0.7026,1,1,0.8143
14,59,1,1,2,0,1,0.6138,1,1,0.6617
14,60,2,1,2,0,1,0.5905,1,1,0.8942
14,61,1,2,1,0,2,1.5191,2,2,0.7989
14,62,1,2,1,0,2,0.8139,1,1,0.6697
14,63,1,1,1,1,2,1.3783,1,2,0.7822
14,64,1,2,2,1,2,0.9259,2,2,0.7177
14,65,1,2,1,0,2,0.6957,2,2,0.5515
14,66,1,1,2,0,1,1.077,2,2,0.5488
14,67,2,2,2,1,2,0.8226,2,1,0.8704
14,68,2,1,2,0,1,0.8038,1,1,0.5956
14,69,2,2,2,1,2,0.8863,1,1,1.7021
14,70,1,2,1,0,2,0.9391,1,1,0.7949
14,71,1,2,2,1,2,0.8099,2,2,0.5376
14,72,1,1,2,0,1,0.7476,1,1,1.3073
14,73,2,1,1,1,1,0.8046,2,2,0.8523
14,74,1,1,1,1,1,0.7092,2,2,0.5651
14,75,2,2,1,0,2,0.7513,1,1,0.9271
14,76,2,2,1,0,2,0.6964,2,2,0.6162
14,77,2,2,1,0,2,0.6157,2,2,0.9195
14,78,1,1,2,0,1,1.317,2,2,0.7248
14,79,2,2,1,0,2,0.6824,1,1,0.9862
14,80,1,2,2,1,2,0.6496,1,1,0.5054
14,81,2,2,2,1,2,0.8145,2,2,1.0543
14,82,1,1,2,0,1,0.5662,1,1,0.742
14,83,2,2,1,0,2,0.8798,1,1,0.9916
14,84,2,2,1,0,2,0.6146,1,2,0.7263
14,85,2,1,2,0,1,0.7199,2,2,0.8318
14,86,1,2,2,1,2,0.5554,2,1,0.5392
14,87,1,1,2,0,1,0.7211,2,2,0.5769
14,88,1,1,2,0,1,0.7683,1,1,0.5601
14,89,1,2,1,0,2,0.7582,2,2,0.6779
14,90,2,2,1,0,2,0.7584,1,1,0.7422
14,91,1,1,2,0,1,0.688,2,2,0.6718
14,92,2,1,2,0,1,0.6882,1,1,1.824
14,93,1,2,2,1,2,0.7042,1,1,0.688
14,94,1,1,1,1,1,0.8089,1,1,0.7287
14,95,1,1,1,1,1,0.6863,2,2,0.542
14,96,1,2,2,1,2,0.5599,1,1,1.0557
14,97,2,1,1,1,1,0.7579,1,1,0.7417
14,98,1,1,1,1,1,0.6691,1,2,1.3569
14,99,1,1,1,1,1,0.6629,2,2,0.9027
14,100,2,2,2,1,2,0.7478,2,2,0.9235
14,101,2,2,1,0,2,0.5414,1,1,0.9731
14,102,2,2,2,1,2,0.7763,2,2,1.0161
14,103,2,1,2,0,1,0.8715,2,1,1.2393
14,104,2,1,1,1,1,0.855,2,2,1.1588
14,105,2,2,2,1,2,0.7568,1,1,1.2526
14,106,2,1,2,0,1,0.6924,2,2,1.0602
14,107,2,2,2,1,2,0.7406,1,1,0.9804
14,108,2,1,2,0,1,0.7314,2,2,0.6511
14,109,2,2,1,0,2,0.9993,2,2,0.7271
14,110,1,2,1,0,2,0.6847,2,1,1.3085
14,111,2,2,1,0,2,0.6498,2,2,0.6975
14,112,2,2,1,0,2,0.8707,2,2,0.6625
14,113,2,1,1,1,1,0.8068,2,2,1.4947
14,114,1,2,1,0,2,0.9435,1,1,1.4392
14,115,2,2,2,1,2,0.8189,1,1,0.6106
14,116,2,1,1,1,1,1.1339,1,1,0.9256
14,117,1,2,1,0,2,0.503,1,1,0.4868
14,118,1,2,1,0,2,0.8077,2,2,0.5995
14,119,2,1,1,1,1,0.6864,2,2,0.9262
14,120,2,1,2,0,1,0.7478,1,1,0.9876
14,121,2,2,2,1,1,0.6105,2,1,1.4832
14,122,2,1,1,1,1,0.8217,2,2,0.9974
14,123,2,1,1,1,1,0.9404,2,2,0.8602
14,124,1,2,2,1,2,0.9849,1,1,1.0326
14,125,2,2,1,0,2,0.6961,2,2,0.8718
14,126,1,2,1,0,2,0.7338,1,1,0.5257
14,127,1,1,1,1,1,0.887,1,2,1.1268
14,128,2,1,2,0,1,0.8484,2,2,1.7921
14,129,2,2,1,0,2,0.7732,1,1,0.885
14,130,1,1,1,1,1,0.6896,2,2,0.9934
14,131,2,2,2,1,2,0.6164,2,1,0.9841
14,132,1,2,1,0,2,0.7189,2,1,1.5347
14,133,1,2,2,1,2,0.6524,2,2,0.7002
14,134,2,1,1,1,2,0.6813,1,2,1.7394
14,135,2,1,2,0,1,0.61,2,1,0.7858
14,136,2,2,2,1,2,0.7206,2,2,2.1124
14,137,2,2,2,1,2,0.611,1,1,0.9788
14,138,1,1,2,0,1,0.6892,1,1,0.737
14,139,1,1,2,0,1,0.6828,2,2,0.5386
14,140,1,1,2,0,1,0.6323,2,2,0.5521
14,141,2,1,1,1,1,0.6221,2,2,0.6699
14,142,1,1,1,1,1,0.6863,1,1,0.8621
14,143,2,2,1,0,2,0.7425,1,2,1.6863
14,144,1,1,1,1,1,0.6157,2,2,0.5995
14,145,1,2,1,0,2,0.855,2,2,0.4548
14,146,2,2,2,1,2,0.5837,1,1,1.1435
14,147,1,1,2,0,1,0.9622,1,1,0.754
14,148,2,1,1,1,1,0.6762,1,1,1.044
14,149,2,2,2,1,2,0.7178,1,1,0.7656
14,150,1,1,2,0,1,0.6121,2,2,0.5319
14,151,2,2,2,1,2,0.794,1,1,1.0977
14,152,1,2,1,0,2,0.6266,2,2,0.4184
14,153,1,2,2,1,2,0.6179,1,1,0.7937
14,154,2,2,2,1,2,0.6167,2,1,0.7285
14,155,1,2,1,0,2,0.6345,1,1,0.7463
14,156,2,1,1,1,2,0.8084,1,1,0.9808
14,157,1,1,2,0,1,0.6795,1,1,0.7272
14,158,1,1,1,1,1,0.7489,1,1,0.9886
14,159,1,2,1,0,2,0.8036,1,1,0.5954
14,160,1,2,1,0,2,0.7581,2,2,0.8699
14,161,1,1,1,1,1,0.6411,2,2,0.7529
14,162,2,1,2,0,1,0.8841,2,1,0.7399
14,163,2,1,2,0,1,0.7857,1,1,0.7695
14,164,1,1,2,0,1,0.68,1,1,0.5998
14,165,1,1,1,1,1,0.6111,1,1,1.2989
14,166,2,2,1,0,2,0.8079,1,1,0.9197
14,167,2,1,1,1,1,0.7413,2,2,0.9171
14,168,1,1,1,1,1,0.8666,2,2,0.7224
14,169,1,1,1,1,1,0.616,2,2,0.6638
14,170,1,1,1,1,1,0.8081,1,1,0.8559
14,171,2,2,2,1,2,0.7481,1,1,0.9239
14,172,1,1,2,0,1,0.6815,1,1,0.7932
14,173,2,2,1,0,2,1.4482,2,2,0.92
14,174,2,1,2,0,1,0.5496,2,2,0.8533
14,175,2,1,2,0,1,0.6293,1,1,1.5091
14,176,1,2,2,1,2,0.7541,2,2,0.8019
14,177,1,2,2,1,2,0.6889,2,2,0.8646
14,178,1,1,2,0,1,0.6928,2,2,0.9966
14,179,1,1,1,1,1,0.6953,2,2,0.5511
14,180,2,1,1,1,1,0.6969,1,1,0.7447
14,181,1,2,2,1,2,0.6905,1,1,0.4184
14,182,2,1,1,1,1,0.682,1,2,1.1135
14,183,2,1,1,1,1,0.6667,2,2,1.0344
14,184,1,1,1,1,1,0.4941,1,1,0.6059
14,185,1,2,1,0,2,0.6811,2,2,0.7289
14,186,1,1,1,1,1,0.6682,2,2,0.78
14,187,1,1,1,1,1,0.6669,2,2,0.7147
14,188,2,1,2,0,1,0.6606,1,1,0.7083
14,189,1,2,1,0,2,0.7534,1,1,0.8012
14,190,2,1,2,0,1,0.6242,2,2,0.8
14,191,2,1,2,0,1,0.687,1,2,1.2468
14,192,1,2,2,1,1,0.6586,1,1,0.7163
15,1,1,2,2,1,2,0.7641,1,1,0.748
15,2,1,2,2,1,2,0.5658,1,1,0.6136
15,3,2,2,1,0,2,0.6771,1,1,0.8528
15,4,1,1,1,1,1,0.6927,2,2,0.7405
15,5,1,1,2,0,1,0.6393,2,2,0.6231
15,6,1,1,1,1,1,0.7505,1,2,0.7343
15,7,1,1,1,1,1,0.7279,1,1,0.7117
15,8,2,2,1,0,2,0.6288,2,2,1.0606
15,9,1,1,2,0,1,0.6887,1,1,0.9286
15,10,2,2,2,1,2,0.8781,1,1,0.6699
15,11,2,1,2,0,1,0.6863,2,2,0.67
15,12,2,1,1,1,1,0.5467,1,1,0.7225
15,13,1,1,1,1,1,0.6278,2,2,0.8036
15,14,1,1,1,1,1,1.1386,2,2,0.5464
15,15,2,1,1,1,1,0.6283,2,2,0.676
15,16,2,1,1,1,1,0.5004,1,1,0.7403
15,17,2,1,2,0,1,0.7383,2,1,0.658
15,18,2,1,2,0,1,0.6582,2,1,0.834
15,19,2,2,2,1,2,0.7217,1,1,0.9615
15,20,1,2,2,1,2,0.5675,2,2,0.5513
15,21,2,1,1,1,1,0.8421,2,2,0.5699
15,22,1,2,1,0,2,0.6804,2,2,0.6002
15,23,1,2,1,0,2,0.6637,1,1,0.9035
15,24,2,1,1,1,1,0.9523,2,2,0.8081
15,25,2,1,2,0,1,0.6834,1,1,0.7311
15,26,1,2,2,1,2,0.6129,2,2,0.6608
15,27,2,1,1,1,1,0.6249,1,1,0.5447
15,28,1,1,2,0,1,0.6265,1,1,0.7383
15,29,1,2,1,0,2,0.6959,1,1,0.6797
15,30,1,1,1,1,1,0.6203,2,2,0.4761
15,31,1,2,1,0,2,0.7565,2,2,0.5483
15,32,2,2,1,0,2,0.7464,1,1,0.8582
15,33,2,1,1,1,1,0.6611,1,1,0.6448
15,34,2,1,2,0,1,0.7605,2,2,0.7443
15,35,1,2,2,1,2,0.6784,2,2,0.5982
15,36,2,2,1,0,2,0.6852,2,2,0.733
15,37,2,1,1,1,1,0.7075,1,2,0.8193
15,38,2,1,1,1,1,0.5267,1,1,0.8945
15,39,2,1,2,0,1,0.8154,1,1,0.6712
15,40,1,1,2,0,1,1.0834,2,2,0.7472
15,41,1,2,2,1,2,0.437,2,2,0.4847
15,42,1,1,1,1,1,0.4334,1,1,0.7372
15,43,2,1,1,1,1,0.875,2,2,1.2428
15,44,2,1,2,0,1,0.7467,1,1,0.9225
15,45,1,2,2,1,2,0.6918,1,1,0.8036
15,46,2,1,1,1,1,0.6906,2,2,0.7383
15,47,2,1,1,1,1,0.6319,1,1,0.9998
15,48,1,1,2,0,1,0.6867,1,1,0.6065
15,49,1,2,2,1,2,0.7457,1,1,0.7295
15,50,1,1,2,0,1,0.768,2,2,1.7758
15,51,2,1,2,0,1,0.9305,1,1,0.7222
15,52,1,1,2,0,1,1.3315,2,1,1.1873
15,53,1,2,1,0,2,0.6581,1,1,0.9619
15,54,1,1,2,0,1,0.6201,2,2,0.6039
15,55,2,2,1,0,2,0.6909,1,1,0.6747
15,56,2,2,1,0,2,0.7956,2,2,0.7794
15,57,2,1,2,0,1,0.7068,2,2,0.6906
15,58,2,1,1,1,1,0.6195,2,2,0.5393
15,59,1,1,2,0,1,0.5858,1,1,0.8256
15,60,1,1,2,0,1,0.881,2,2,0.5448
15,61,1,2,1,0,2,0.6267,2,2,0.5465
15,62,2,1,1,1,1,0.6165,1,1,1.4963
15,63,1,1,2,0,1,0.8171,1,1,0.6089
15,64,2,2,2,1,2,0.6959,1,1,0.8717
15,65,2,2,1,0,2,0.7574,2,2,0.6772
15,66,2,1,2,0,1,0.9026,2,2,0.6303
15,67,2,1,1,1,1,0.8101,1,1,1.2418
15,68,2,2,1,0,2,0.5537,2,2,0.7935
15,69,1,1,1,1,1,0.6165,1,1,0.6643
15,70,1,1,1,1,1,0.5645,2,2,0.6762
15,71,1,1,1,1,1,0.5647,1,1,0.6764
15,72,2,1,1,1,1,0.6171,2,2,0.6649
15,73,2,1,2,0,1,0.6931,1,1,0.8048
15,74,1,1,2,0,1,0.7441,1,1,0.5998
15,75,2,1,2,0,1,0.6751,2,2,0.7229
15,76,2,1,1,1,1,0.5002,2,2,0.804
15,77,1,2,1,0,2,0.627,2,2,0.6108
15,78,2,1,2,0,2,0.558,2,2,0.6575
15,79,2,1,2,0,1,0.6217,1,1,0.7975
15,80,1,2,1,0,2,0.8125,1,1,0.6682
15,81,2,2,1,0,2,1.0047,1,1,0.6684
15,82,1,1,2,0,1,0.6783,2,2,0.47
15,83,1,1,1,1,1,0.6107,1,1,0.9145
15,84,1,2,2,1,2,0.6956,2,2,0.5514
15,85,1,1,1,1,1,0.6332,2,2,0.553
15,86,1,1,1,1,1,0.6231,2,2,0.6068
15,87,2,2,2,1,2,0.8101,2,2,0.9859
15,88,1,2,1,0,2,0.6493,2,2,0.5051
15,89,1,1,1,1,1,0.6105,1,1,0.6582
15,90,2,2,2,1,2,0.4827,1,1,0.8504
15,91,2,1,1,1,1,0.6904,2,2,0.6741
15,92,1,2,1,0,2,0.6266,1,1,1.2503
15,93,2,2,1,0,2,0.6785,2,2,0.7902
15,94,2,2,2,1,2,0.753,1,1,1.3128
15,95,2,1,1,1,1,1.1941,1,1,0.8579
15,96,2,2,2,1,2,0.6742,1,1,0.786
15,97,2,2,2,1,2,0.7652,1,2,0.941
15,98,2,2,1,0,2,0.6353,1,1,0.683
15,99,2,1,2,0,1,0.8797,1,1,0.7355
15,100,1,1,1,1,1,0.8211,2,2,0.6129
15,101,2,2,1,0,2,0.6881,2,2,0.7359
15,102,1,2,2,1,2,0.6295,2,2,0.5492
15,103,2,2,1,0,2,0.6194,1,1,0.9231
15,104,2,2,1,0,2,0.6167,2,2,0.8564
15,105,2,1,1,1,1,0.7486,1,1,1.4364
15,106,2,2,2,1,2,0.6123,1,1,0.788
15,107,1,2,1,0,2,0.6515,2,2,0.4433
15,108,1,2,1,0,7,7,2,7,7
15,109,1,2,1,0,2,0.8578,1,1,1.0336
15,110,1,1,1,1,1,0.761,1,1,0.6808
15,111,1,2,2,1,2,0.5862,2,2,0.8899
15,112,1,1,1,1,1,0.6946,1,1,0.7423
15,113,2,2,1,0,2,0.9964,1,2,1.4922
15,114,1,1,2,0,1,0.785,1,1,0.5128
15,115,1,2,2,1,2,0.8911,2,2,0.4909
15,116,2,2,2,1,2,0.6838,2,2,0.4756
15,117,2,1,2,0,1,1.012,2,2,0.6758
15,118,2,2,1,0,2,0.6282,1,1,0.932
15,119,1,2,1,0,2,0.6255,2,2,0.5453
15,120,2,2,2,1,2,0.6912,2,2,0.8029
15,121,2,1,2,0,1,0.8179,1,1,0.6737
15,122,1,1,2,0,1,0.9983,1,1,0.4702
15,123,1,1,2,0,1,0.6396,2,2,0.6233
15,124,1,2,1,0,2,0.675,2,2,0.5948
15,125,2,1,1,1,1,0.926,1,1,0.7818
15,126,2,1,2,0,1,0.6806,2,1,1.1123
15,127,1,2,1,0,2,0.8156,1,1,0.6073
15,128,2,1,2,0,1,0.6303,2,2,0.8062
15,129,2,2,2,1,2,0.6348,2,2,0.7466
15,130,2,2,2,1,2,0.6924,1,2,0.9322
15,131,2,1,2,0,1,0.6618,1,1,0.7736
15,132,2,2,2,1,2,0.5038,1,1,0.9996
15,133,2,1,1,1,1,0.6226,2,2,1.0544
15,134,1,2,2,1,2,0.6185,1,1,0.7303
15,135,2,2,2,1,2,0.5364,2,2,0.7761
15,136,1,1,1,1,1,0.7389,1,1,0.9147
15,137,1,2,2,1,2,0.556,2,2,0.4758
15,138,2,1,2,0,1,0.6805,2,2,0.6642
15,139,1,2,2,1,2,0.6336,1,1,0.6174
15,140,2,2,2,1,2,0.6286,2,2,0.8684
15,141,2,2,1,0,2,0.6966,2,2,0.9363
15,142,1,2,2,1,2,0.5659,2,2,0.8697
15,143,1,2,1,0,2,0.9421,2,2,0.7979
15,144,1,1,1,1,1,0.6967,1,1,0.8084
15,145,2,1,2,0,1,0.8874,1,1,0.8072
15,146,2,2,2,1,2,0.6706,2,2,0.7184
15,147,2,1,2,0,1,0.9202,1,1,1.288
15,148,2,2,1,0,2,0.6455,2,2,0.6934
15,149,2,2,2,1,7,7,2,1,1.7705
15,150,1,2,1,0,2,0.5992,1,1,0.711
15,151,1,2,2,1,2,0.5641,1,1,0.4199
15,152,2,2,1,0,2,1.0152,2,2,0.679
15,153,1,1,1,1,1,0.7594,2,2,0.6792
15,154,1,2,1,0,7,7,1,1,1.7277
15,155,1,1,2,0,1,0.6328,1,1,0.9366
15,156,1,1,2,0,1,0.7229,2,2,0.5787
15,157,1,2,2,1,2,0.7414,1,1,0.5972
15,158,1,2,2,1,2,0.8122,2,2,0.54
15,159,2,2,2,1,2,1.6341,2,1,1.6179
15,160,2,1,1,1,1,0.8453,2,2,0.701
15,161,2,2,1,0,2,0.7622,1,1,1.066
15,162,2,1,2,0,1,0.6964,1,1,0.8082
15,163,1,1,2,0,1,0.6952,1,1,0.615
15,164,2,2,2,1,2,0.6263,2,2,0.738
15,165,1,2,2,1,2,0.5676,1,1,0.6154
15,166,2,1,1,1,1,0.5626,2,2,0.6744
15,167,2,2,2,1,1,1.2028,1,1,0.7192
15,168,2,2,2,1,2,0.6128,1,1,0.5965
15,169,2,2,1,0,7,7,1,1,0.6916
15,170,1,2,2,1,2,0.6087,2,2,0.4645
15,171,1,2,1,0,2,0.6338,2,2,0.4896
15,172,2,2,1,0,2,0.6185,1,2,1.3063
15,173,1,2,1,0,2,0.5196,1,1,0.6314
15,174,1,1,1,1,1,0.6309,2,2,0.8067
15,175,2,2,2,1,2,0.6937,2,2,0.8054
15,176,2,2,1,0,2,0.5004,2,2,0.6762
15,177,1,1,2,0,1,0.6169,2,2,0.4727
15,178,2,2,1,0,2,0.6251,1,1,1.1209
15,179,1,1,2,0,2,1.5744,2,2,0.598
15,180,1,1,1,1,1,0.557,2,2,0.7968
15,181,1,1,2,0,1,0.6838,1,1,0.7956
15,182,1,2,1,0,1,0.5833,2,2,1.2992
15,183,1,2,2,1,2,0.6163,1,1,0.536
15,184,1,2,2,1,2,0.6466,1,1,0.9504
15,185,1,1,1,1,1,0.5564,1,1,0.7322
15,186,1,2,1,0,2,0.6781,1,1,1.1098
15,187,2,2,2,1,2,0.8188,2,2,1.2506
15,188,1,2,1,0,2,0.5625,1,1,2.0183
15,189,1,1,2,0,1,0.7574,1,1,0.6132
15,190,1,2,2,1,2,0.5604,1,1,0.6082
15,191,1,1,2,0,1,0.7474,2,2,0.6673
15,192,1,1,1,1,1,0.5556,2,2,0.5394
16,1,1,1,1,1,2,0.8841,1,1,0.9742
16,2,1,2,2,1,2,1.2461,2,2,0.5258
16,3,1,1,1,1,1,1.1315,2,2,0.8592
16,4,2,1,2,0,1,0.9081,2,2,1.5319
16,5,2,2,2,1,2,0.8461,2,1,0.7659
16,6,2,2,2,1,2,0.7241,2,1,1.0279
16,7,1,2,1,0,2,0.9194,2,2,0.7112
16,8,2,1,1,1,1,1.0763,2,2,1.2521
16,9,2,1,2,0,1,0.82,2,1,1.1877
16,10,1,1,2,0,1,1.0425,1,1,1.7302
16,11,1,1,2,0,1,0.7517,2,2,0.7355
16,12,1,2,1,0,2,1.0131,1,1,0.8689
