SN,Trial,Block,vstmLoad,Overlap,Targ,Flnk,TargPos,FlnkPos,Congruency,Resp,RT,vstmPos,vstmCond,vstmResp,vstmRT
1,1,1,1,0,2,2,2,2,1,2,0.5173,1,2,2,0.437
1,2,1,1,0,2,2,4,2,1,2,0.5137,1,2,2,0.6895
1,3,1,1,1,2,1,6,1,0,2,0.5021,1,1,1,0.7419
1,4,1,1,0,2,1,3,2,0,1,0.5597,1,1,2,1.0432
1,5,1,1,1,2,2,5,2,1,2,0.4749,2,2,2,0.7147
1,6,1,1,1,1,2,5,2,0,1,0.6083,2,1,1,0.592
1,7,1,1,0,1,2,3,2,0,1,0.5157,1,2,2,0.6275
1,8,1,1,1,2,1,2,1,0,2,0.627,1,1,1,0.7388
1,9,1,1,0,1,2,2,1,0,1,0.5684,2,1,1,0.8722
1,10,1,1,1,1,2,1,1,0,2,0.5606,1,2,2,0.66
1,11,1,1,1,2,2,6,2,1,2,1.0082,2,2,2,0.672
1,12,1,1,0,2,2,5,1,1,2,0.7524,2,2,2,0.8002
1,13,1,1,1,2,2,4,1,1,2,0.6114,1,2,2,0.5952
1,14,1,1,0,1,1,6,1,1,1,0.4902,2,2,2,0.602
1,15,1,1,1,1,2,3,1,0,1,0.7059,1,2,2,0.5617
1,16,1,1,0,2,1,2,1,0,2,0.5561,2,2,2,0.4758
1,17,1,1,0,2,1,2,2,0,2,0.6922,1,2,2,0.484
1,18,1,1,0,1,1,6,2,1,1,0.5607,1,1,1,0.6725
1,19,1,1,1,1,1,2,2,1,2,0.8691,2,1,2,1.0467
1,20,1,1,0,2,2,3,1,1,2,0.6587,2,2,2,0.8344
1,21,1,1,1,2,1,1,2,0,2,0.7383,2,1,1,0.7221
1,22,1,1,1,2,1,2,2,0,2,0.6797,2,1,1,1.0475
1,23,1,1,0,2,2,6,1,1,2,0.6756,2,1,1,0.8514
1,24,1,1,0,2,1,4,1,0,2,0.6273,2,2,2,0.5471
1,25,1,1,0,2,1,6,1,0,2,0.5009,2,1,1,0.7407
1,26,1,1,0,1,2,1,1,0,1,0.6865,2,2,2,0.7343
1,27,1,1,0,1,1,3,2,1,1,0.6397,1,1,1,0.7515
1,28,1,1,1,1,2,2,1,0,1,0.6098,1,1,1,0.6575
1,29,1,1,1,2,1,4,2,0,2,0.5695,2,1,2,0.5533
1,30,1,1,0,2,1,4,2,0,2,0.5954,1,1,1,0.7712
1,31,1,1,0,2,1,3,1,0,2,0.5654,2,1,1,0.6772
1,32,1,1,1,2,2,1,2,1,2,0.5656,2,2,2,0.5494
1,33,1,1,1,1,1,3,2,1,1,0.5032,2,1,1,1.063
1,34,1,1,1,1,1,5,2,1,2,0.6272,2,2,2,0.976
1,35,1,1,0,2,1,5,2,0,2,0.791,1,1,1,0.7748
1,36,1,1,0,2,2,1,2,1,2,0.65,1,2,2,0.8258
1,37,1,1,1,1,1,5,1,1,1,0.6775,1,1,1,0.5973
1,38,1,1,0,1,1,5,2,1,1,0.4923,1,1,1,0.7321
1,39,1,1,0,1,2,6,2,0,1,0.6779,1,1,1,0.6617
1,40,1,1,1,2,2,2,2,1,2,0.6899,2,1,1,1.0576
1,41,1,1,1,2,1,4,1,0,2,0.4938,1,2,2,0.6055
1,42,1,1,0,2,1,6,2,0,2,0.4366,1,1,1,0.7403
1,43,1,1,0,2,2,2,1,1,2,0.6862,2,2,1,0.7339
1,44,1,1,0,1,2,4,1,0,1,0.6518,2,2,2,0.6355
1,45,1,1,1,1,1,6,2,1,1,1.0125,2,1,1,0.5482
1,46,1,1,1,2,2,2,1,1,2,0.7345,1,2,2,0.5263
1,47,1,1,0,1,2,5,1,0,1,0.6317,2,2,1,0.6795
1,48,1,1,1,2,2,3,2,1,2,0.6679,2,2,2,0.4597
1,49,2,2,0,1,2,1,2,0,1,0.7021,1,2,1,1.3898
1,50,2,2,1,1,2,1,1,0,2,0.6605,1,2,2,0.8461
1,51,2,2,1,2,1,2,2,0,1,0.6912,2,2,1,0.8533
1,52,2,2,1,1,2,2,2,0,1,0.6535,2,2,2,1.0212
1,53,2,2,0,2,2,2,1,1,1,0.7134,2,1,2,1.2999
1,54,2,2,1,2,1,1,2,0,2,0.8186,2,2,1,0.6744
1,55,2,2,0,2,1,1,1,0,2,0.6915,2,1,1,0.8673
1,56,2,2,1,1,2,6,1,0,1,0.6314,1,1,1,1.0632
1,57,2,2,1,2,1,6,2,0,2,0.8834,2,1,1,0.8671
1,58,2,2,1,2,2,4,1,1,2,0.8233,1,2,1,1.1911
1,59,2,2,0,1,2,2,2,0,1,0.6994,1,1,2,1.5152
1,60,2,2,0,1,1,6,1,1,1,0.7492,2,1,1,1.053
1,61,2,2,0,1,1,1,2,1,1,0.6171,1,1,1,1.0489
1,62,2,2,0,2,2,4,1,1,2,0.7528,2,1,1,1.0566
1,63,2,2,0,2,2,1,1,1,2,0.7892,2,2,2,1.3489
1,64,2,2,0,2,1,6,1,0,2,0.6307,2,1,1,0.8705
1,65,2,2,0,2,2,4,2,1,2,0.5472,1,1,1,0.6589
1,66,2,2,0,2,2,5,2,1,2,0.5473,1,1,1,0.9151
1,67,2,2,0,1,2,4,2,0,1,0.5683,1,1,1,1.128
1,68,2,2,1,1,2,5,1,0,1,0.6738,1,2,1,0.9135
1,69,2,2,1,1,1,2,1,1,1,0.8469,1,2,1,1.0867
1,70,2,2,1,1,1,3,1,1,1,0.6162,1,1,1,1.2401
1,71,2,2,1,2,2,2,2,1,2,0.6799,2,1,1,0.9837
1,72,2,2,0,1,1,4,2,1,1,0.5544,1,1,1,0.6662
1,73,2,2,1,2,1,5,2,0,2,0.6944,2,1,1,1.1262
1,74,2,2,0,1,1,2,1,1,1,0.6197,2,1,1,1.1795
1,75,2,2,1,2,2,4,2,1,2,0.5149,2,2,1,0.8187
1,76,2,2,1,1,1,5,1,1,1,0.5902,1,2,2,1.1499
1,77,2,2,1,1,2,1,2,0,1,0.6957,2,1,1,0.8715
1,78,2,2,0,1,2,1,1,0,2,0.7519,2,2,1,0.7793
1,79,2,2,0,2,1,2,1,0,2,0.8539,2,1,1,0.9657
1,80,2,2,0,1,2,5,1,0,1,0.5599,2,2,2,1.1837
1,81,2,2,0,1,1,3,2,1,1,0.5662,1,1,1,1.062
1,82,2,2,1,1,2,3,1,0,1,0.6313,1,2,1,0.9991
1,83,2,2,0,2,1,4,2,0,2,0.7103,1,1,1,0.8221
1,84,2,2,1,2,1,4,2,0,2,0.8657,2,2,2,0.8495
1,85,2,2,1,1,2,2,1,0,1,0.5615,1,1,1,1.4412
1,86,2,2,1,2,2,1,1,1,2,0.8209,1,1,1,1.8286
1,87,2,2,0,1,1,4,1,1,1,0.4882,2,2,2,1.752
1,88,2,2,0,1,2,6,2,0,1,0.8022,1,2,2,0.85
1,89,2,2,1,2,2,1,2,1,2,0.7944,2,2,1,0.9062
1,90,2,2,1,1,2,5,2,0,1,0.6762,2,2,2,0.916
1,91,2,2,0,1,2,4,1,0,1,0.6736,2,2,2,0.7213
1,92,2,2,0,2,1,5,1,0,2,0.6436,2,2,1,1.0754
1,93,2,2,0,2,2,2,2,1,2,0.7278,1,2,2,0.9676
1,94,2,2,0,1,1,1,1,1,1,0.6258,2,1,1,0.8656
1,95,2,2,0,2,2,5,1,1,2,0.7578,2,2,1,0.7415
1,96,2,2,0,1,2,2,1,0,1,0.5314,2,2,2,1.0272
1,97,3,2,0,1,2,3,2,0,1,0.6176,1,2,2,0.6654
1,98,3,2,1,2,2,6,1,1,2,0.9115,1,2,2,0.7032
1,99,3,2,1,1,2,4,1,0,1,0.7366,1,1,1,1.1044
1,100,3,2,1,2,2,3,2,1,2,0.5574,2,2,1,1.1812
1,101,3,2,1,2,1,1,1,0,2,0.716,1,2,1,0.9557
1,102,3,2,0,2,2,3,1,1,2,0.6618,2,1,1,0.7736
1,103,3,2,0,1,2,3,1,0,1,0.6201,2,1,1,0.7959
1,104,3,2,0,2,2,6,2,1,2,0.7469,1,1,1,0.9226
1,105,3,2,1,2,2,2,1,1,2,0.5,1,1,2,0.8678
1,106,3,2,1,1,1,6,1,1,1,0.5922,1,2,2,1.1519
1,107,3,2,1,1,1,4,2,1,1,0.6389,2,1,1,1.1347
1,108,3,2,0,1,2,5,2,0,1,0.6282,1,2,2,0.868
1,109,3,2,1,1,1,1,1,1,1,0.5681,1,1,1,1.1279
1,110,3,2,1,1,1,1,2,1,2,0.6972,2,1,2,2.3835
1,111,3,2,0,2,1,5,2,0,2,0.7299,1,2,1,1.5457
1,112,3,2,1,2,1,3,1,0,2,0.6517,1,2,2,0.9554
1,113,3,2,0,2,1,6,2,0,2,0.8698,1,2,1,1.4935
1,114,3,2,1,2,2,5,2,1,2,0.6635,2,1,1,0.6473
1,115,3,2,1,1,2,3,2,0,1,0.7041,2,1,1,1.1999
1,116,3,2,1,1,1,3,2,1,1,0.692,2,1,1,0.9319
1,117,3,2,1,2,2,3,1,1,2,0.6777,1,2,2,1.1094
1,118,3,2,1,1,1,5,2,1,1,0.4867,2,1,1,1.2385
1,119,3,2,1,1,1,4,1,1,1,0.4511,1,1,1,0.8189
1,120,3,2,1,2,1,3,2,0,2,0.6301,2,1,1,0.8699
1,121,3,2,1,1,2,4,2,0,1,0.6222,2,1,1,0.8621
1,122,3,2,1,2,1,4,1,0,2,0.8064,1,2,2,0.5982
1,123,3,2,0,2,2,1,2,1,2,0.6212,1,1,1,1.309
1,124,3,2,1,2,2,6,2,1,2,0.4981,2,1,1,0.9298
1,125,3,2,1,1,1,6,2,1,1,0.4954,2,2,2,1.1192
1,126,3,2,0,1,1,5,1,1,1,0.5134,2,2,2,0.8172
1,127,3,2,1,2,1,2,1,0,2,0.6807,1,2,2,0.5364
1,128,3,2,0,2,1,3,2,0,2,0.583,1,1,2,0.6308
1,129,3,2,0,1,1,2,2,1,1,0.9105,1,2,1,1.1503
1,130,3,2,1,1,1,2,2,1,1,0.557,2,1,1,0.8608
1,131,3,2,1,2,2,5,1,1,2,0.4969,1,2,2,0.9927
1,132,3,2,0,1,1,6,2,1,1,0.5164,1,2,2,0.8842
1,133,3,2,0,2,1,2,2,0,2,0.5491,1,2,2,0.7248
1,134,3,2,0,1,1,5,2,1,1,0.5022,1,2,2,1.766
1,135,3,2,0,2,1,4,1,0,2,0.5484,2,1,2,0.5322
1,136,3,2,0,1,1,3,1,1,1,0.458,2,2,2,0.5058
1,137,3,2,0,2,2,3,2,1,2,0.7392,1,2,1,1.1069
1,138,3,2,1,2,1,5,1,0,2,0.532,1,1,1,0.9639
1,139,3,2,1,1,2,6,2,0,1,0.6104,2,1,2,0.4661
1,140,3,2,0,1,2,6,1,0,1,0.5905,2,1,1,0.8304
1,141,3,2,0,2,1,3,1,0,2,0.682,2,1,1,0.9218
1,142,3,2,0,2,2,6,1,1,2,0.5801,2,2,2,1.1399
1,143,3,2,0,2,1,1,2,0,2,0.6334,1,2,2,1.4492
1,144,3,2,1,2,1,6,1,0,2,0.689,1,2,2,0.8648
1,145,4,1,1,2,1,5,2,0,2,0.5332,2,2,2,0.517
1,146,4,1,1,1,2,3,2,0,1,0.6223,2,1,1,0.4141
1,147,4,1,0,1,2,3,1,0,1,0.5613,2,2,2,0.4812
1,148,4,1,1,1,2,2,2,0,1,0.6218,2,2,2,0.5416
1,149,4,1,1,1,1,2,1,1,1,0.5477,1,2,2,0.5955
1,150,4,1,0,2,2,6,2,1,2,0.6825,1,1,1,0.9863
1,151,4,1,0,1,1,2,1,1,1,0.5857,2,2,2,0.4415
1,152,4,1,0,1,1,2,2,1,1,0.6174,1,2,2,0.6653
1,153,4,1,1,1,1,6,1,1,1,0.6817,1,1,1,0.6014
1,154,4,1,0,1,1,1,2,1,1,0.6245,1,2,2,0.4162
1,155,4,1,0,2,2,1,1,1,1,0.5282,2,1,1,0.4592
1,156,4,1,0,1,1,4,2,1,1,0.4954,1,1,1,0.7353
1,157,4,1,0,2,2,4,1,1,2,0.5648,2,1,1,0.7406
1,158,4,1,0,1,2,2,2,0,1,0.4826,1,1,1,0.5304
1,159,4,1,0,1,1,1,1,1,1,0.688,2,2,2,0.8638
1,160,4,1,0,1,2,1,2,0,1,0.6162,1,1,2,0.5359
1,161,4,1,0,1,1,4,1,1,1,0.5898,2,2,2,0.7015
1,162,4,1,1,2,2,4,2,1,2,0.6187,2,1,1,0.5385
1,163,4,1,0,2,1,1,1,0,2,0.6203,2,2,2,0.9241
1,164,4,1,1,1,2,4,2,0,1,0.5537,2,2,2,0.4735
1,165,4,1,0,2,1,1,2,0,2,0.6141,1,2,2,0.6619
1,166,4,1,0,1,2,5,2,0,1,0.6261,1,2,2,0.4179
1,167,4,1,1,2,1,6,2,0,2,0.8094,2,1,1,1.1132
1,168,4,1,1,1,2,5,1,0,1,0.6302,1,1,1,0.678
1,169,4,1,0,2,2,5,2,1,2,0.7584,1,2,2,0.6142
1,170,4,1,1,1,2,4,1,0,1,0.6255,1,2,2,0.4172
1,171,4,1,1,1,1,1,2,1,1,0.6285,2,2,1,0.7403
1,172,4,1,1,1,1,1,1,1,1,0.5823,1,1,1,0.6941
1,173,4,1,0,2,2,3,2,1,2,0.6112,1,2,2,0.5311
1,174,4,1,1,2,1,3,2,0,2,0.6129,2,1,1,0.4687
1,175,4,1,0,1,2,6,1,0,1,0.5571,2,2,2,0.4769
1,176,4,1,1,1,2,6,1,0,1,0.6816,1,2,2,0.5373
1,177,4,1,0,1,1,5,1,1,1,0.6243,2,1,1,0.5442
1,178,4,1,1,2,1,1,1,0,2,1.138,1,1,1,0.8017
1,179,4,1,1,2,2,1,1,1,2,0.5607,1,1,1,0.5445
1,180,4,1,1,2,1,5,1,0,2,0.5624,1,2,2,0.4821
1,181,4,1,1,1,1,4,2,1,1,0.547,2,1,1,0.7228
1,182,4,1,1,1,2,1,2,0,1,0.6282,2,1,1,0.676
1,183,4,1,1,2,2,6,1,1,2,0.6806,1,2,2,0.4724
1,184,4,1,1,1,2,6,2,0,1,0.6131,2,2,2,0.6609
1,185,4,1,0,1,2,4,2,0,1,0.8862,1,1,1,1.318
1,186,4,1,1,1,1,4,1,1,1,0.6403,1,1,1,0.624
1,187,4,1,1,1,1,3,1,1,1,0.4837,1,1,1,0.7235
1,188,4,1,0,2,1,5,1,0,2,0.4773,2,1,1,0.5251
1,189,4,1,1,2,2,5,1,1,2,0.5025,1,2,2,0.4862
1,190,4,1,0,1,1,3,1,1,1,0.4989,2,1,1,0.4827
1,191,4,1,1,2,1,3,1,0,2,0.6234,1,1,1,1.1191
1,192,4,1,1,2,2,3,1,1,2,0.4324,1,2,2,0.7362
1,193,5,2,0,2,2,1,1,1,2,0.613,2,1,1,0.7888
1,194,5,2,1,1,1,5,2,1,1,0.4838,2,2,2,0.5316
1,195,5,2,0,1,1,6,1,1,1,0.5612,2,2,2,0.545
1,196,5,2,0,1,1,1,1,1,1,0.4989,2,1,1,0.8026
1,197,5,2,1,1,1,1,2,1,1,0.4976,2,2,2,0.4814
1,198,5,2,1,1,2,2,2,0,1,0.6221,2,1,1,0.9258
1,199,5,2,0,2,2,3,2,1,2,0.5672,1,2,2,0.487
1,200,5,2,0,2,2,5,2,1,2,0.6276,1,2,2,0.9314
1,201,5,2,1,1,1,2,2,1,1,0.497,2,1,1,1.0567
1,202,5,2,0,2,1,1,2,0,2,0.6091,1,1,1,0.5289
1,203,5,2,0,2,2,2,2,1,2,0.6395,1,2,1,0.6872
1,204,5,2,1,2,2,6,1,1,2,0.6639,1,1,1,0.7117
1,205,5,2,1,2,2,4,2,1,2,0.8208,2,2,2,0.6766
1,206,5,2,1,1,2,5,1,0,1,0.373,1,2,2,0.6127
1,207,5,2,0,1,2,5,2,0,1,0.496,1,2,2,0.4798
1,208,5,2,0,1,1,1,2,1,1,0.5042,1,2,1,0.744
1,209,5,2,0,1,2,1,2,0,1,0.6618,1,2,2,1.0296
1,210,5,2,1,2,1,6,1,0,2,0.8145,1,1,2,0.4143
1,211,5,2,0,2,1,4,1,0,2,0.6498,2,1,2,0.6975
1,212,5,2,0,1,1,3,1,1,1,0.5109,2,1,2,0.8787
1,213,5,2,0,1,1,4,2,1,1,0.6436,1,1,1,0.8833
1,214,5,2,1,2,1,1,2,0,2,0.5769,2,2,1,1.0087
1,215,5,2,0,2,2,4,2,1,2,0.5279,1,1,1,0.6398
1,216,5,2,0,2,1,1,1,0,2,0.5281,2,1,1,0.5759
1,217,5,2,0,1,1,6,2,1,1,0.5584,1,2,1,0.9262
1,218,5,2,1,2,2,5,1,1,2,0.6036,1,1,2,1.0993
1,219,5,2,1,2,2,1,1,1,2,0.4722,1,1,1,1.544
1,220,5,2,0,1,1,2,2,1,1,0.678,1,2,2,0.5977
1,221,5,2,0,2,1,6,2,0,2,0.6207,1,1,2,0.7965
1,222,5,2,1,2,1,4,2,0,2,0.5445,2,2,1,0.5282
1,223,5,2,1,1,2,1,2,0,1,0.6343,2,1,2,1.3222
1,224,5,2,1,1,1,4,1,1,1,0.6517,1,1,1,0.7634
1,225,5,2,0,1,2,5,1,0,1,0.7262,2,1,1,0.966
1,226,5,2,1,2,1,3,1,0,2,0.6816,1,1,1,0.8574
1,227,5,2,0,2,1,5,1,0,2,0.6738,2,1,1,1.0416
1,228,5,2,0,2,1,4,2,0,2,0.6293,1,2,2,0.7411
1,229,5,2,0,1,2,6,2,0,1,0.6229,1,2,1,0.8627
1,230,5,2,0,1,2,2,2,0,1,0.5988,1,2,2,1.1586
1,231,5,2,0,2,2,1,2,1,2,0.6927,1,1,1,0.9964
1,232,5,2,1,2,1,1,1,0,1,0.6311,1,1,1,1.236
1,233,5,2,0,1,2,3,2,0,1,0.6877,1,2,2,0.6715
1,234,5,2,1,1,2,1,1,0,1,0.8041,1,1,2,0.6599
1,235,5,2,0,2,1,3,1,0,2,0.7123,2,2,2,0.6321
1,236,5,2,1,1,1,6,1,1,1,0.8758,1,2,1,0.9876
1,237,5,2,1,2,2,5,2,1,2,0.7106,2,1,1,0.9503
1,238,5,2,1,1,1,1,1,1,1,0.6204,1,2,1,1.2442
1,239,5,2,0,1,2,2,1,0,1,0.7201,2,2,2,1.0879
1,240,5,2,0,1,2,4,1,0,1,0.6285,2,2,2,1.1242
1,241,6,1,0,1,1,6,2,1,2,0.7779,1,1,1,0.6538
1,242,6,1,1,2,1,2,1,0,2,0.7577,1,1,1,0.6135
1,243,6,1,1,1,1,1,2,1,1,0.485,2,1,1,0.4687
1,244,6,1,1,1,2,4,1,0,1,0.441,1,2,2,0.6167
1,245,6,1,0,1,2,2,1,0,1,0.5522,2,2,2,0.664
1,246,6,1,1,1,1,4,1,1,1,0.6451,1,1,1,0.6929
1,247,6,1,0,1,1,4,2,1,1,0.6218,1,2,2,0.4776
1,248,6,1,1,2,2,4,1,1,2,0.5425,1,1,1,0.4622
1,249,6,1,0,1,2,2,2,0,1,0.6029,1,1,1,0.5227
1,250,6,1,1,2,1,5,1,0,7,7,1,1,1,0.7693
1,251,6,1,0,2,2,6,2,1,2,0.7961,1,2,2,0.4598
1,252,6,1,1,2,2,4,2,1,2,0.624,2,2,2,0.4798
1,253,6,1,0,2,1,6,1,0,2,0.6322,2,2,2,0.68
1,254,6,1,0,2,2,2,2,1,2,0.6207,1,2,2,0.4124
1,255,6,1,1,2,1,6,1,0,2,0.4317,1,2,2,0.4155
1,256,6,1,1,1,1,3,2,1,1,0.4347,2,2,2,0.5465
1,257,6,1,0,1,2,6,2,0,1,0.6284,1,1,2,0.6762
1,258,6,1,1,2,2,2,1,1,2,0.5248,1,1,1,0.5726
1,259,6,1,0,2,2,6,1,1,2,0.4272,2,1,1,0.539
1,260,6,1,0,1,1,3,2,1,1,0.4457,1,1,1,0.4935
1,261,6,1,0,1,1,6,1,1,1,0.6746,2,2,2,0.9784
1,262,6,1,1,1,2,1,1,0,1,0.6771,1,2,2,0.4049
1,263,6,1,1,1,1,2,2,1,1,1.1047,2,1,1,0.5764
1,264,6,1,1,1,1,4,2,1,1,0.495,2,2,2,0.6709
1,265,6,1,0,2,1,1,1,0,2,0.5592,2,2,2,1.759
1,266,6,1,1,2,1,5,2,0,2,0.6289,2,1,1,0.4847
1,267,6,1,1,2,2,1,1,1,2,0.6136,1,2,2,0.6615
1,268,6,1,1,1,1,6,2,1,2,0.5616,2,1,1,0.5971
1,269,6,1,1,2,2,6,2,1,1,0.812,2,1,2,0.5887
1,270,6,1,0,1,1,3,1,1,1,0.5536,2,2,2,0.4734
1,271,6,1,1,2,1,6,2,0,2,0.7303,2,2,2,1.034
1,272,6,1,0,1,2,5,2,0,1,0.6034,1,2,2,0.5872
1,273,6,1,0,1,2,4,1,0,1,0.5344,2,2,2,0.7102
1,274,6,1,0,2,2,1,1,1,2,0.6729,2,2,2,0.6567
1,275,6,1,1,2,1,2,2,0,2,0.8247,2,2,2,0.4884
1,276,6,1,0,1,1,1,1,1,1,0.5651,2,2,2,0.3569
1,277,6,1,1,2,2,3,2,1,2,0.563,2,1,1,0.6108
1,278,6,1,1,1,2,5,2,0,1,0.494,2,1,1,0.5418
1,279,6,1,0,2,1,3,2,0,2,0.6876,1,2,2,0.4794
1,280,6,1,0,2,1,4,2,0,2,0.6201,1,1,1,0.4119
1,281,6,1,0,2,2,4,2,1,2,0.6114,1,1,2,0.5312
1,282,6,1,0,1,1,4,1,1,1,0.585,2,1,1,0.8248
1,283,6,1,0,2,1,3,1,0,2,0.6007,2,1,1,0.5205
1,284,6,1,1,2,1,4,2,0,2,0.6428,2,2,2,0.3706
1,285,6,1,0,2,2,5,2,1,2,0.8732,1,1,1,0.4729
1,286,6,1,0,1,1,2,2,1,1,0.5143,1,1,1,1.0741
1,287,6,1,0,2,2,1,2,1,2,0.6147,1,1,1,0.5345
1,288,6,1,1,1,2,2,2,0,1,0.5928,2,2,2,0.5126
1,289,7,1,1,2,2,3,1,1,2,0.8564,1,1,1,0.6482
1,290,7,1,1,1,2,4,2,0,1,0.5601,2,2,2,0.4159
1,291,7,1,0,1,2,1,1,0,1,0.4992,2,2,2,0.6109
1,292,7,1,1,1,2,2,1,0,1,0.5582,1,1,2,0.478
1,293,7,1,1,1,2,3,1,0,1,0.6024,1,2,2,0.5862
1,294,7,1,1,2,2,6,1,1,2,0.813,1,2,1,0.9888
1,295,7,1,1,1,1,5,1,1,1,1.1334,1,1,1,0.7331
1,296,7,1,0,1,2,4,2,0,1,0.6606,1,2,2,0.4524
1,297,7,1,0,2,1,5,1,0,2,0.7446,2,1,1,0.6004
1,298,7,1,0,1,2,3,1,0,1,0.5763,2,2,2,0.4321
1,299,7,1,1,2,1,1,2,0,2,0.6721,2,1,1,0.4638
1,300,7,1,1,2,1,1,1,0,2,0.5288,1,2,2,0.4485
1,301,7,1,1,2,2,5,2,1,2,0.4965,2,1,1,0.4163
1,302,7,1,1,1,1,5,2,1,1,0.5635,2,1,1,0.4833
1,303,7,1,1,1,2,6,2,0,1,0.752,2,1,2,0.4158
1,304,7,1,0,2,1,5,2,0,2,0.6631,1,2,2,0.5189
1,305,7,1,1,1,2,3,2,0,1,0.6242,2,2,2,0.48
1,306,7,1,0,2,1,1,2,0,2,0.7487,1,2,2,1.1805
1,307,7,1,0,1,1,5,2,1,2,1.2434,1,1,2,0.5325
1,308,7,1,1,1,2,6,1,0,2,1.1359,1,2,2,0.4669
1,309,7,1,0,1,1,5,1,1,1,0.6245,2,2,2,0.6723
1,310,7,1,0,2,2,5,1,1,2,0.8219,2,2,2,0.8696
1,311,7,1,1,2,2,1,2,1,2,0.6743,2,1,1,0.7221
1,312,7,1,1,2,1,4,1,0,2,0.7723,1,1,1,0.6921
1,313,7,1,0,1,2,5,1,0,1,0.6328,2,2,2,1.0005
1,314,7,1,0,2,2,4,1,1,2,0.6235,2,2,2,0.9913
1,315,7,1,1,2,1,3,1,0,2,0.498,1,1,1,0.6098
1,316,7,1,1,1,1,6,1,1,1,0.5688,1,1,1,0.5526
1,317,7,1,0,2,2,2,1,1,2,0.6109,2,2,2,0.4667
1,318,7,1,0,1,2,1,2,0,1,0.6191,1,2,2,0.4749
1,319,7,1,0,2,2,3,2,1,2,0.7318,1,1,1,0.9716
1,320,7,1,1,1,1,1,1,1,1,0.6181,1,1,1,0.4739
1,321,7,1,1,2,2,5,1,1,2,0.736,1,2,2,0.3998
1,322,7,1,1,1,2,5,1,0,1,0.739,1,1,1,0.6588
1,323,7,1,0,2,1,2,2,0,2,0.6752,1,2,2,0.467
1,324,7,1,0,1,2,3,2,0,1,0.6312,1,1,1,0.551
1,325,7,1,1,2,1,3,2,0,2,0.6328,2,1,1,0.4886
1,326,7,1,1,1,2,1,2,0,1,0.6293,2,2,2,0.485
1,327,7,1,1,1,1,2,1,1,1,0.6257,1,2,2,0.4175
1,328,7,1,0,2,1,2,1,0,2,0.6288,2,2,2,0.5485
1,329,7,1,0,2,2,3,1,1,2,0.8746,2,1,1,0.6664
1,330,7,1,0,1,1,2,1,1,1,0.5431,2,1,1,0.4629
1,331,7,1,0,1,1,1,2,1,1,0.7955,1,1,1,0.9073
1,332,7,1,1,1,1,3,1,1,1,0.7053,1,2,2,0.4331
1,333,7,1,1,2,2,2,2,1,2,0.5451,2,1,1,0.5289
1,334,7,1,0,2,1,4,1,0,2,0.7035,2,1,1,0.4952
1,335,7,1,0,2,1,6,2,0,2,1.4443,1,1,1,0.6601
1,336,7,1,0,1,2,6,1,0,1,0.525,2,2,2,0.6367
1,337,8,2,1,1,1,3,2,1,1,0.8297,2,2,2,0.9415
1,338,8,2,1,1,2,5,2,0,1,0.6233,2,2,1,0.8631
1,339,8,2,0,2,2,6,2,1,2,0.7913,1,2,2,1.2871
1,340,8,2,1,1,1,2,1,1,2,0.6159,1,1,1,0.8485
1,341,8,2,1,2,1,2,1,0,2,0.6127,1,2,2,1.3005
1,342,8,2,0,1,1,4,1,1,1,0.7625,2,2,2,1.0023
1,343,8,2,1,2,2,3,1,1,2,0.6134,1,1,1,0.8532
1,344,8,2,0,2,2,3,1,1,2,0.8903,2,2,2,0.9381
1,345,8,2,1,2,2,4,1,1,2,0.7479,1,1,1,0.7317
1,346,8,2,0,2,2,2,1,1,2,0.6944,2,2,2,1.1262
1,347,8,2,1,2,1,5,1,0,2,0.5558,1,2,2,0.6036
1,348,8,2,0,1,2,4,2,0,1,0.7193,1,1,2,0.767
1,349,8,2,0,1,1,5,2,1,1,0.7253,1,1,1,1.0291
1,350,8,2,1,2,1,6,2,0,2,0.8206,2,2,2,0.8683
1,351,8,2,1,1,2,6,2,0,1,0.7605,2,1,1,1.0643
1,352,8,2,1,1,1,5,1,1,1,0.6284,1,2,2,1.1882
1,353,8,2,0,2,2,4,1,1,2,0.4949,2,2,1,0.7987
1,354,8,2,1,1,1,3,1,1,1,0.6629,1,1,2,0.9026
1,355,8,2,1,2,2,2,2,1,2,0.7198,2,2,2,0.7676
1,356,8,2,0,1,1,5,1,1,1,0.4861,2,1,2,0.5978
1,357,8,2,1,2,2,1,2,1,2,0.9651,2,1,2,0.5649
1,358,8,2,1,1,2,4,2,0,1,0.6761,2,1,1,1.364
1,359,8,2,0,2,1,5,2,0,2,0.6744,1,2,2,0.8502
1,360,8,2,1,1,2,3,2,0,1,0.7188,2,2,2,0.7026
1,361,8,2,1,2,1,2,2,0,2,0.5675,2,2,2,0.5512
1,362,8,2,0,2,1,2,1,0,1,0.6331,2,1,1,0.7261
1,363,8,2,1,2,1,5,2,0,2,0.5673,2,2,2,0.8711
1,364,8,2,1,2,1,3,2,0,2,0.6235,2,1,2,1.2473
1,365,8,2,1,2,2,2,1,1,2,0.8277,1,1,2,1.4514
1,366,8,2,0,2,2,6,1,1,2,0.8172,2,2,2,1.057
1,367,8,2,0,1,2,1,1,0,1,0.6211,2,1,1,1.3089
1,368,8,2,1,1,2,3,1,0,1,0.7069,1,2,2,1.0106
1,369,8,2,1,1,2,2,1,0,1,0.6101,1,2,1,1.2338
1,370,8,2,1,1,2,6,1,0,1,0.6222,1,1,1,1.118
1,371,8,2,1,2,2,6,2,1,2,0.7278,2,1,2,0.9036
1,372,8,2,1,1,2,4,1,0,1,1.0171,1,1,1,1.0649
1,373,8,2,0,2,1,6,1,0,2,0.5651,2,1,1,0.9968
1,374,8,2,1,1,1,4,2,1,1,0.6956,2,2,1,0.8714
1,375,8,2,1,2,2,3,2,1,2,0.5958,2,1,2,1.2835
1,376,8,2,1,1,1,6,2,1,1,0.5961,2,2,2,0.7079
1,377,8,2,0,1,1,3,2,1,1,0.5493,1,2,1,0.5971
1,378,8,2,0,1,2,6,1,0,1,1.5403,2,2,1,1.0121
1,379,8,2,0,2,1,2,2,0,2,0.6476,1,1,2,0.6953
1,380,8,2,0,1,1,2,1,1,1,0.5205,2,1,1,0.8883
1,381,8,2,1,2,1,4,1,0,2,0.5531,1,1,1,0.8569
1,382,8,2,0,1,2,3,1,0,1,0.5858,2,2,1,0.8896
1,383,8,2,0,2,1,3,2,0,2,0.7184,1,1,1,0.8942
1,384,8,2,0,2,2,5,1,1,2,0.576,2,1,1,1.1998
2,1,1,2,0,2,2,2,2,1,2,1.0148,1,2,2,0.8066
2,2,1,2,0,2,2,4,2,1,2,0.7863,1,2,2,0.7061
2,3,1,2,1,2,1,6,1,0,1,0.8792,1,1,1,0.789
2,4,1,2,0,2,1,3,2,0,2,0.9319,1,1,2,0.7237
2,5,1,2,1,2,2,5,2,1,2,0.8571,2,2,1,0.7129
2,6,1,2,1,1,2,5,2,0,1,0.922,2,1,1,0.7138
2,7,1,2,0,1,2,3,2,0,1,1.0267,1,2,2,0.9465
2,8,1,2,1,2,1,2,1,0,2,0.96,1,1,1,0.7518
2,9,1,2,0,1,2,2,1,0,1,0.9419,2,1,1,0.6696
2,10,1,2,1,1,2,1,1,0,1,0.8141,1,2,2,0.9258
2,11,1,2,1,2,2,6,2,1,2,0.9394,2,2,1,0.6672
2,12,1,2,0,2,2,5,1,1,2,0.9351,2,2,1,0.7909
2,13,1,2,1,2,2,4,1,1,2,0.8655,1,2,1,0.5292
2,14,1,2,0,1,1,6,1,1,1,1.4386,2,2,1,1.1664
2,15,1,2,1,1,2,3,1,0,1,0.8644,1,2,1,0.7842
2,16,1,2,0,2,1,2,1,0,2,0.9228,2,2,2,0.7145
2,17,1,2,0,2,1,2,2,0,2,0.9804,1,2,2,0.8362
2,18,1,2,0,1,1,6,2,1,1,0.9438,1,1,1,0.9276
2,19,1,2,1,1,1,2,2,1,1,1.0287,2,1,2,0.9485
2,20,1,2,0,2,2,3,1,1,2,0.9981,2,2,2,0.6618
2,21,1,2,1,2,1,1,2,0,2,0.946,2,1,2,0.7378
2,22,1,2,1,2,1,2,2,0,2,0.8712,2,1,1,0.791
2,23,1,2,0,2,2,6,1,1,2,0.8869,2,1,2,0.8707
2,24,1,2,0,2,1,4,1,0,2,1.6831,2,2,2,1.0269
2,25,1,2,0,2,1,6,1,0,2,0.9463,2,1,1,0.5461
2,26,1,2,0,1,2,1,1,0,1,1.2039,2,2,1,1.0597
2,27,1,2,0,1,1,3,2,1,1,1.1837,1,1,2,0.6554
2,28,1,2,1,1,2,2,1,0,1,1.3191,1,1,2,1.5589
2,29,1,2,1,2,1,4,2,0,2,0.9209,2,1,1,0.6487
2,30,1,2,0,2,1,4,2,0,2,1.2006,1,1,1,0.6724
2,31,1,2,0,2,1,3,1,0,2,1.1368,2,1,2,0.9926
2,32,1,2,1,2,2,1,2,1,2,1.2732,2,2,1,0.809
2,33,1,2,1,1,1,3,2,1,1,1.005,2,1,1,0.6687
2,34,1,2,1,1,1,5,2,1,1,0.8536,2,2,1,0.6454
2,35,1,2,0,2,1,5,2,0,2,1.1289,1,1,1,0.6647
2,36,1,2,0,2,2,1,2,1,2,0.885,1,2,2,0.7407
2,37,1,2,1,1,1,5,1,1,1,1.0182,1,1,2,0.81
2,38,1,2,0,1,1,5,2,1,1,0.861,1,1,1,0.8448
2,39,1,2,0,1,2,6,2,0,1,1.0047,1,1,1,0.8605
2,40,1,2,1,2,2,2,2,1,2,0.9329,2,1,1,0.4687
2,41,1,2,1,2,1,4,1,0,2,0.9411,1,2,1,0.6689
2,42,1,2,0,2,1,6,2,0,2,0.8898,1,1,1,0.6816
2,43,1,2,0,2,2,2,1,1,1,0.8782,2,2,2,0.916
2,44,1,2,0,1,2,4,1,0,1,0.9649,2,2,2,0.8207
2,45,1,2,1,1,1,6,2,1,1,1.0276,2,1,1,1.3954
2,46,1,2,1,2,2,2,1,1,2,1.1421,1,2,2,1.1899
2,47,1,2,0,1,2,5,1,0,1,0.9616,2,2,2,0.7534
2,48,1,2,1,2,2,3,2,1,2,0.9317,2,2,2,0.7234
2,49,2,1,0,1,2,1,2,0,1,1.1109,1,2,2,0.4547
2,50,2,1,1,1,2,1,1,0,1,1.0744,1,2,2,0.4821
2,51,2,1,1,2,1,2,2,0,2,0.8788,2,2,2,0.4786
2,52,2,1,1,1,2,2,2,0,1,0.951,2,2,2,0.4228
2,53,2,1,0,2,2,2,1,1,2,1.1983,2,1,1,0.5421
2,54,2,1,1,2,1,1,2,0,2,1.0602,2,2,2,0.468
2,55,2,1,0,2,1,1,1,0,2,0.8764,2,1,1,0.4762
2,56,2,1,1,1,2,6,1,0,1,1.0648,1,1,1,0.4726
2,57,2,1,1,2,1,6,2,0,2,0.8811,2,1,1,0.9289
2,58,2,1,1,2,2,4,1,1,2,0.8784,1,2,2,0.5422
2,59,2,1,0,1,2,2,2,0,2,0.816,1,1,1,0.7847
2,60,2,1,0,1,1,6,1,1,1,0.6312,2,1,1,0.551
2,61,2,1,0,1,1,1,2,1,1,0.8248,1,1,1,0.6165
2,62,2,1,0,2,2,4,1,1,2,0.8721,2,1,1,0.4718
2,63,2,1,0,2,2,1,1,1,2,1.5372,2,2,2,0.625
2,64,2,1,0,2,1,6,1,0,2,1.0085,2,1,1,0.4163
2,65,2,1,0,2,2,4,2,1,2,1.1395,1,1,1,0.4193
2,66,2,1,0,2,2,5,2,1,2,0.9505,1,1,1,0.6144
2,67,2,1,0,1,2,4,2,0,1,0.8176,1,1,1,0.8014
2,68,2,1,1,1,2,5,1,0,1,1.3924,1,2,2,0.5442
2,69,2,1,1,1,1,2,1,1,1,1.4463,1,2,2,0.534
2,70,2,1,1,1,1,3,1,1,1,0.9358,1,1,2,0.5356
2,71,2,1,1,2,2,2,2,1,2,1.2413,2,1,1,0.457
2,72,2,1,0,1,1,4,2,1,1,1.145,1,1,1,0.7448
2,73,2,1,1,2,1,5,2,0,2,1.0746,2,1,1,0.4824
2,74,2,1,0,1,1,2,1,1,1,1.0071,2,1,1,0.6068
2,75,2,1,1,2,2,4,2,1,2,0.8976,2,2,2,0.4974
2,76,2,1,1,1,1,5,1,1,1,0.9463,1,2,2,0.4821
2,77,2,1,1,1,2,1,2,0,1,1.1988,2,1,1,0.5425
2,78,2,1,0,1,2,1,1,0,1,0.9966,2,2,2,0.4684
2,79,2,1,0,2,1,2,1,0,2,1.5809,2,1,1,0.6686
2,80,2,1,0,1,2,5,1,0,1,0.9006,2,2,2,0.5643
2,81,2,1,0,1,1,3,2,1,1,0.9426,1,1,1,0.4784
2,82,2,1,1,1,2,3,1,0,1,0.8869,1,2,2,0.4227
2,83,2,1,0,2,1,4,2,0,2,0.9422,1,1,1,0.4779
2,84,2,1,1,2,1,4,2,0,2,0.7113,2,2,2,0.4391
2,85,2,1,1,1,2,2,1,0,1,0.9991,1,1,1,0.4069
2,86,2,1,1,2,2,1,1,1,1,1.0426,1,1,2,0.5957
2,87,2,1,0,1,1,4,1,1,1,1.5794,2,2,2,0.6032
2,88,2,1,0,1,2,6,2,0,1,1.2662,1,2,2,0.4819
2,89,2,1,1,2,2,1,2,1,2,0.8786,2,2,2,0.6704
2,90,2,1,1,1,2,5,2,0,1,1.0068,2,2,2,0.6066
2,91,2,1,0,1,2,4,1,0,1,1.0136,2,2,2,0.6774
2,92,2,1,0,2,1,5,1,0,2,1.6067,2,2,1,0.6945
2,93,2,1,0,2,2,2,2,1,2,1.0317,1,2,2,0.4395
2,94,2,1,0,1,1,1,1,1,1,0.7721,2,1,1,0.4359
2,95,2,1,0,2,2,5,1,1,2,1.2636,2,2,2,0.6074
2,96,2,1,0,1,2,2,1,0,1,0.8511,2,2,2,0.5789
2,97,3,1,0,1,2,3,2,0,1,0.9012,1,2,2,0.7569
2,98,3,1,1,2,2,6,1,1,2,0.947,1,2,2,0.9308
2,99,3,1,1,1,2,4,1,0,1,0.8803,1,1,1,0.5441
2,100,3,1,1,2,2,3,2,1,2,0.8702,2,2,2,0.47
2,101,3,1,1,2,1,1,1,0,2,1.0586,1,2,2,0.5944
2,102,3,1,0,2,2,3,1,1,2,0.7454,2,1,1,0.7292
2,103,3,1,0,1,2,3,1,0,1,1.0708,2,1,1,0.6066
2,104,3,1,0,2,2,6,2,1,2,1.0135,1,1,1,0.9974
2,105,3,1,1,2,2,2,1,1,2,1.4641,1,1,1,0.6159
2,106,3,1,1,1,1,6,1,1,1,0.9471,1,2,2,0.4829
2,107,3,1,1,1,1,4,2,1,1,0.8678,2,1,1,0.9156
2,108,3,1,0,1,2,5,2,0,7,7,1,2,2,0.6929
2,109,3,1,1,1,1,1,1,1,1,0.8948,1,1,1,0.4946
2,110,3,1,1,1,1,1,2,1,1,0.8155,2,1,1,0.7352
2,111,3,1,0,2,1,5,2,0,2,0.8208,1,2,2,0.4206
2,112,3,1,1,2,1,3,1,0,2,1.1439,1,2,1,0.5517
2,113,3,1,0,2,1,6,2,0,2,0.9138,1,2,2,0.4496
2,114,3,1,1,2,2,5,2,1,2,0.8175,2,1,1,0.8653
2,115,3,1,1,1,2,3,2,0,1,0.8215,2,1,1,0.7412
2,116,3,1,1,1,1,3,2,1,1,0.9953,2,1,1,0.723
2,117,3,1,1,2,2,3,1,1,2,0.9654,1,2,2,0.5651
2,118,3,1,1,1,1,5,2,1,1,1.5717,2,1,1,0.9155
2,119,3,1,1,1,1,4,1,1,1,0.6966,1,1,1,0.6163
2,120,3,1,1,2,1,3,2,0,2,0.9998,2,1,1,0.5356
2,121,3,1,1,1,2,4,2,0,1,0.9021,2,1,1,1.2059
2,122,3,1,1,2,1,4,1,0,2,0.9606,1,2,2,0.8164
2,123,3,1,0,2,2,1,2,1,1,1.2036,1,1,1,0.72
2,124,3,1,1,2,2,6,2,1,2,1.2653,2,1,1,0.7371
2,125,3,1,1,1,1,6,2,1,1,0.8227,2,2,2,0.7425
2,126,3,1,0,1,1,5,1,1,1,0.9443,2,2,2,0.9281
2,127,3,1,1,2,1,2,1,0,2,1.0174,1,2,2,0.6172
2,128,3,1,0,2,1,3,2,0,2,0.7564,1,1,1,0.5482
2,129,3,1,0,1,1,2,2,1,1,0.8103,1,2,2,0.6021
2,130,3,1,1,1,1,2,2,1,1,0.898,2,1,1,0.4978
2,131,3,1,1,2,2,5,1,1,2,0.8187,1,2,2,0.7385
2,132,3,1,0,1,1,6,2,1,1,0.7601,1,2,2,0.4879
2,133,3,1,0,2,1,2,2,0,2,1.3965,1,2,2,0.7404
2,134,3,1,0,1,1,5,2,1,1,1.3261,1,2,2,0.6699
2,135,3,1,0,2,1,4,1,0,2,0.8783,2,1,1,0.5421
2,136,3,1,0,1,1,3,1,1,1,0.8042,2,2,2,0.788
2,137,3,1,0,2,2,3,2,1,2,1.379,1,2,2,0.4667
2,138,3,1,1,2,1,5,1,0,2,0.8229,1,1,1,0.6148
2,139,3,1,1,1,2,6,2,0,1,0.8467,2,1,1,0.5745
2,140,3,1,0,1,2,6,1,0,1,1.0808,2,1,1,0.4246
2,141,3,1,0,2,1,3,1,0,2,0.8043,2,1,1,0.5961
2,142,3,1,0,2,2,6,1,1,2,0.8229,2,2,2,0.5506
2,143,3,1,0,2,1,1,2,0,2,0.9459,1,2,2,0.5457
2,144,3,1,1,2,1,6,1,0,2,0.8718,1,2,2,0.8555
2,145,4,2,1,2,1,5,2,0,2,0.709,2,2,1,0.6288
2,146,4,2,1,1,2,3,2,0,1,0.9843,2,1,1,1.3521
2,147,4,2,0,1,2,3,1,0,1,0.8781,2,2,1,1.0539
2,148,4,2,1,1,2,2,2,0,1,0.7938,2,2,2,0.6497
2,149,4,2,1,1,1,2,1,1,1,0.8175,1,2,1,0.8653
2,150,4,2,0,2,2,6,2,1,2,0.9215,1,1,2,0.7773
2,151,4,2,0,1,1,2,1,1,1,0.7525,2,2,1,0.7363
2,152,4,2,0,1,1,2,2,1,1,0.9859,1,2,2,0.5217
2,153,4,2,1,1,1,6,1,1,1,0.8073,1,1,2,0.727
2,154,4,2,0,1,1,1,2,1,1,1.0407,1,2,2,0.8324
2,155,4,2,0,2,2,1,1,1,2,0.8291,2,1,1,1.2608
2,156,4,2,0,1,1,4,2,1,1,0.945,1,1,1,0.6728
2,157,4,2,0,2,2,4,1,1,2,0.8812,2,1,1,0.609
2,158,4,2,0,1,2,2,2,0,1,0.824,1,1,1,1.3197
2,159,4,2,0,1,1,1,1,1,1,0.689,2,2,2,0.7368
2,160,4,2,0,1,2,1,2,0,1,0.6944,1,1,1,0.9342
2,161,4,2,0,1,1,4,1,1,1,0.7557,2,2,2,0.7395
2,162,4,2,1,2,2,4,2,1,2,0.8134,2,1,1,1.3091
2,163,4,2,0,2,1,1,1,0,2,0.9984,2,2,2,1.5582
2,164,4,2,1,1,2,4,2,0,1,0.8371,2,2,2,0.8208
2,165,4,2,0,2,1,1,2,0,2,0.8123,1,2,1,0.6041
2,166,4,2,0,1,2,5,2,0,1,0.9831,1,2,2,0.7749
2,167,4,2,1,2,1,6,2,0,2,0.9532,2,1,1,0.873
2,168,4,2,1,1,2,5,1,0,1,1.0903,1,1,1,0.8181
2,169,4,2,0,2,2,5,2,1,2,0.7573,1,2,1,0.9971
2,170,4,2,1,1,2,4,1,0,1,0.8598,1,2,1,0.7796
2,171,4,2,1,1,1,1,2,1,1,1.1742,2,2,2,0.774
2,172,4,2,1,1,1,1,1,1,1,0.6962,1,1,1,0.808
2,173,4,2,0,2,2,3,2,1,2,0.759,1,2,1,0.7428
2,174,4,2,1,2,1,3,2,0,2,0.9166,2,1,1,1.5404
2,175,4,2,0,1,2,6,1,0,1,0.9304,2,2,1,0.8502
2,176,4,2,1,1,2,6,1,0,1,0.9063,1,2,2,0.9541
2,177,4,2,0,1,1,5,1,1,1,0.7404,2,1,1,1.1722
2,178,4,2,1,2,1,1,1,0,2,1.0836,1,1,1,0.6194
2,179,4,2,1,2,2,1,1,1,2,1.1308,1,1,1,0.6026
2,180,4,2,1,2,1,5,1,0,2,0.8816,1,2,1,0.6094
2,181,4,2,1,1,1,4,2,1,1,0.9245,2,1,1,1.3562
2,182,4,2,1,1,2,1,2,0,1,0.8822,2,1,1,1.0579
2,183,4,2,1,2,2,6,1,1,2,0.8141,1,2,2,0.7339
2,184,4,2,1,1,2,6,2,0,1,0.9475,2,2,2,0.9313
2,185,4,2,0,1,2,4,2,0,1,0.7411,1,1,1,0.8529
2,186,4,2,1,1,1,4,1,1,1,0.8377,1,1,1,1.0775
2,187,4,2,1,1,1,3,1,1,1,0.7579,1,1,1,1.1897
2,188,4,2,0,2,1,5,1,0,2,0.9966,2,1,1,0.9804
2,189,4,2,1,2,2,5,1,1,2,0.8711,1,2,2,0.8549
2,190,4,2,0,1,1,3,1,1,1,0.8398,2,1,1,0.6956
2,191,4,2,1,2,1,3,1,0,2,1.0085,1,1,1,1.3122
2,192,4,2,1,2,2,3,1,1,2,0.6293,1,2,2,0.869
2,193,5,1,0,2,2,1,1,1,2,0.8439,2,1,1,0.5077
2,194,5,1,1,1,1,5,2,1,1,0.6889,2,2,2,0.6727
2,195,5,1,0,1,1,6,1,1,1,0.8811,2,2,2,0.4809
2,196,5,1,0,1,1,1,1,1,1,1.0173,2,1,1,0.6171
2,197,5,1,1,1,1,1,2,1,1,0.8373,2,2,2,0.501
2,198,5,1,1,1,2,2,2,0,1,1.0022,2,1,2,0.538
2,199,5,1,0,2,2,3,2,1,2,1.0399,1,2,2,0.8957
2,200,5,1,0,2,2,5,2,1,2,0.9327,1,2,2,0.5325
2,201,5,1,1,1,1,2,2,1,1,1.1903,2,1,1,0.7261
2,202,5,1,0,2,1,1,2,0,2,1.0155,1,1,1,0.6152
2,203,5,1,0,2,2,2,2,1,2,1.2665,1,2,2,0.5463
2,204,5,1,1,2,2,6,1,1,2,1.2041,1,1,1,0.8039
2,205,5,1,1,2,2,4,2,1,2,0.8829,2,2,2,0.4827
2,206,5,1,1,1,2,5,1,0,1,0.8153,1,2,2,0.4791
2,207,5,1,0,1,2,5,2,0,1,0.8876,1,2,2,0.4873
2,208,5,1,0,1,1,1,2,1,1,0.756,1,2,2,0.6118
2,209,5,1,0,1,2,1,2,0,1,1.1873,1,2,2,0.467
2,210,5,1,1,2,1,6,1,0,2,1.1433,1,1,1,0.551
2,211,5,1,0,2,1,4,1,0,2,0.8131,2,1,1,0.4769
2,212,5,1,0,1,1,3,1,1,1,0.7456,2,1,1,0.5373
2,213,5,1,0,1,1,4,2,1,1,0.5552,1,1,1,0.475
2,214,5,1,1,2,1,1,2,0,2,0.8194,2,2,2,0.6112
2,215,5,1,0,2,2,4,2,1,2,0.6747,1,1,1,0.4664
2,216,5,1,0,2,1,1,1,0,2,0.9389,2,1,1,0.7307
2,217,5,1,0,1,1,6,2,1,1,0.8163,1,2,2,0.544
2,218,5,1,1,2,2,5,1,1,2,0.8701,1,1,1,0.5339
2,219,5,1,1,2,2,1,1,1,2,0.7555,1,1,1,0.4193
2,220,5,1,0,1,1,2,2,1,1,0.7585,1,2,2,0.9983
2,221,5,1,0,2,1,6,2,0,2,0.7611,1,1,1,0.4888
2,222,5,1,1,2,1,4,2,0,2,0.6935,2,2,2,0.6133
2,223,5,1,1,1,2,1,2,0,1,0.8805,2,1,1,0.9283
2,224,5,1,1,1,1,4,1,1,1,0.7499,1,1,1,0.6697
2,225,5,1,0,1,2,5,1,0,1,1.1223,2,1,1,0.5941
2,226,5,1,1,2,1,3,1,0,2,0.7452,1,1,1,0.6649
2,227,5,1,0,2,1,5,1,0,2,0.7571,2,1,1,0.6128
2,228,5,1,0,2,1,4,2,0,2,0.6881,1,2,2,0.5439
2,229,5,1,0,1,2,6,2,0,1,0.6897,1,2,2,0.4175
2,230,5,1,0,1,2,2,2,0,1,0.8848,1,2,2,0.8046
2,231,5,1,0,2,2,1,2,1,2,0.8835,1,1,1,0.4193
2,232,5,1,1,2,1,1,1,0,2,0.7586,1,1,1,0.4864
2,233,5,1,0,1,2,3,2,0,1,0.772,1,2,2,0.4358
2,234,5,1,1,1,2,1,1,0,1,0.9957,1,1,1,0.4675
2,235,5,1,0,2,1,3,1,0,2,1.0039,2,2,2,0.5397
2,236,5,1,1,1,1,6,1,1,1,0.9416,1,2,2,0.5414
2,237,5,1,1,2,2,5,2,1,2,0.8557,2,1,7,7
2,238,5,1,1,1,1,1,1,1,1,0.7551,1,2,2,0.4829
2,239,5,1,0,1,2,2,1,0,1,0.8038,2,2,2,0.4676
2,240,5,1,0,1,2,4,1,0,1,0.6958,2,2,2,0.5516
2,241,6,2,0,1,1,6,2,1,1,0.6725,1,1,1,0.7843
2,242,6,2,1,2,1,2,1,0,2,0.8229,1,1,1,0.7426
2,243,6,2,1,1,1,1,2,1,1,0.7525,2,1,1,1.5682
2,244,6,2,1,1,2,4,1,0,1,0.7544,1,2,1,2.0182
2,245,6,2,0,1,2,2,1,0,1,0.9213,2,2,2,0.7771
2,246,6,2,1,1,1,4,1,1,1,0.5479,1,1,1,0.7876
2,247,6,2,0,1,1,4,2,1,1,0.6106,1,2,1,1.2984
2,248,6,2,1,2,2,4,1,1,1,0.6515,1,1,1,0.8488
2,249,6,2,0,1,2,2,2,0,1,0.741,1,1,1,0.7248
2,250,6,2,1,2,1,5,1,0,2,0.7751,1,1,1,0.6308
2,251,6,2,0,2,2,6,2,1,2,0.7988,1,2,2,0.9106
2,252,6,2,1,2,2,4,2,1,2,0.6917,2,2,2,0.6115
2,253,6,2,0,2,1,6,1,0,2,0.7507,2,2,2,0.6065
2,254,6,2,0,2,2,2,2,1,2,0.7575,1,2,2,0.6133
2,255,6,2,1,2,1,6,1,0,2,0.8165,1,2,1,0.7363
2,256,6,2,1,1,1,3,2,1,1,1.5619,2,2,2,1.0977
2,257,6,2,0,1,2,6,2,0,1,0.8186,1,1,2,1.0583
2,258,6,2,1,2,2,2,1,1,2,0.9314,1,1,2,0.7872
2,259,6,2,0,2,2,6,1,1,2,0.7742,2,1,2,1.718
2,260,6,2,0,1,1,3,2,1,1,0.7872,1,1,1,0.899
2,261,6,2,0,1,1,6,1,1,1,0.8603,2,2,2,0.8441
2,262,6,2,1,1,2,1,1,0,1,1.0563,1,2,2,0.8481
2,263,6,2,1,1,1,2,2,1,1,0.7689,2,1,1,0.8167
2,264,6,2,1,1,1,4,2,1,1,0.7206,2,2,1,0.7684
2,265,6,2,0,2,1,1,1,0,2,1.3145,2,2,2,0.9143
2,266,6,2,1,2,1,5,2,0,2,0.9513,2,1,1,0.8071
2,267,6,2,1,2,2,1,1,1,2,0.9501,1,2,1,1.1259
2,268,6,2,1,1,1,6,2,1,1,1.2433,2,1,1,1.355
2,269,6,2,1,2,2,6,2,1,2,0.753,2,1,1,0.7368
2,270,6,2,0,1,1,3,1,1,1,0.7113,2,2,2,0.8231
2,271,6,2,1,2,1,6,2,0,2,0.9308,2,2,1,0.9786
2,272,6,2,0,1,2,5,2,0,1,0.6493,1,2,1,0.7611
2,273,6,2,0,1,2,4,1,0,1,0.7194,2,2,1,0.8311
2,274,6,2,0,2,2,1,1,1,2,0.7476,2,2,1,0.7954
2,275,6,2,1,2,1,2,2,0,2,0.8582,2,2,2,0.8419
2,276,6,2,0,1,1,1,1,1,1,0.8268,2,2,2,1.5786
2,277,6,2,1,2,2,3,2,1,2,1.009,2,1,2,1.1208
2,278,6,2,1,1,2,5,2,0,1,0.9299,2,1,1,1.2977
2,279,6,2,0,2,1,3,2,0,2,0.7545,1,2,1,1.5703
2,280,6,2,0,2,1,4,2,0,2,0.7285,1,1,1,1.2883
2,281,6,2,0,2,2,4,2,1,2,0.7451,1,1,2,0.7928
2,282,6,2,0,1,1,4,1,1,1,0.6806,2,1,1,0.7283
2,283,6,2,0,2,1,3,1,0,2,0.9302,2,1,1,0.7219
2,284,6,2,1,2,1,4,2,0,2,0.8075,2,2,1,1.3673
2,285,6,2,0,2,2,5,2,1,2,0.8036,1,1,1,1.4914
2,286,6,2,0,1,1,2,2,1,1,0.9402,1,1,1,0.668
2,287,6,2,0,2,2,1,2,1,2,0.8411,1,1,1,0.8889
2,288,6,2,1,1,2,2,2,0,1,0.7862,2,2,2,0.706
2,289,7,2,1,2,2,3,1,1,2,1.0724,1,1,1,0.6082
2,290,7,2,1,1,2,4,2,0,1,0.707,2,2,2,0.6908
2,291,7,2,0,1,2,1,1,0,1,1.0794,2,2,2,0.6792
2,292,7,2,1,1,2,2,1,0,1,1.0156,1,1,2,1.0634
2,293,7,2,1,1,2,3,1,0,1,0.7915,1,2,1,0.9673
2,294,7,2,1,2,2,6,1,1,2,0.7425,1,2,1,0.7903
2,295,7,2,1,1,1,5,1,1,1,0.7251,1,1,1,1.1569
2,296,7,2,0,1,2,4,2,0,1,0.8071,1,2,1,1.0469
2,297,7,2,0,2,1,5,1,0,2,1.3158,2,1,1,0.9796
2,298,7,2,0,1,2,3,1,0,1,1.0034,2,2,2,0.7312
2,299,7,2,1,2,1,1,2,0,2,0.933,2,1,1,0.6608
2,300,7,2,1,2,1,1,1,0,2,0.8457,1,2,1,1.0215
2,301,7,2,1,2,2,5,2,1,2,0.9247,2,1,1,1.1005
2,302,7,2,1,1,1,5,2,1,1,0.8853,2,1,1,1.1251
2,303,7,2,1,1,2,6,2,0,1,0.7702,2,1,2,1.778
2,304,7,2,0,2,1,5,2,0,2,0.8524,1,2,2,1.0282
2,305,7,2,1,1,2,3,2,0,1,0.9476,2,2,2,1.1234
2,306,7,2,0,2,1,1,2,0,2,0.9252,1,2,2,1.9969
2,307,7,2,0,1,1,5,2,1,1,0.8118,1,1,1,1.3716
2,308,7,2,1,1,2,6,1,0,1,1.002,1,2,2,1.4978
2,309,7,2,0,1,1,5,1,1,1,0.8069,2,2,2,1.6866
2,310,7,2,0,2,2,5,1,1,2,0.8361,2,2,2,0.7559
2,311,7,2,1,2,2,1,2,1,2,0.9343,2,1,2,1.366
2,312,7,2,1,2,1,4,1,0,2,0.9449,1,1,1,0.7367
2,313,7,2,0,1,2,5,1,0,1,0.8223,2,2,2,0.934
2,314,7,2,0,2,2,4,1,1,2,1.0116,2,2,2,0.8034
2,315,7,2,1,2,1,3,1,0,2,0.8706,1,1,2,1.3024
2,316,7,2,1,1,1,6,1,1,1,0.807,1,1,1,1.2388
2,317,7,2,0,2,2,2,1,1,2,0.8184,2,2,1,0.8662
2,318,7,2,0,1,2,1,2,0,1,0.7996,1,2,2,1.4873
2,319,7,2,0,2,2,3,2,1,2,0.8721,1,1,1,1.4959
2,320,7,2,1,1,1,1,1,1,1,0.8977,1,1,1,1.0094
2,321,7,2,1,2,2,5,1,1,2,0.7486,1,2,1,1.1804
2,322,7,2,1,1,2,5,1,0,1,0.7373,1,1,1,0.785
2,323,7,2,0,2,1,2,2,0,2,0.864,1,2,2,0.7838
2,324,7,2,0,1,2,3,2,0,1,0.6304,1,1,1,0.6781
2,325,7,2,1,2,1,3,2,0,2,0.8865,2,1,1,0.9343
2,326,7,2,1,1,2,1,2,0,1,0.7559,2,2,2,0.8037
2,327,7,2,1,1,1,2,1,1,1,0.6907,1,2,2,0.6745
2,328,7,2,0,2,1,2,1,0,2,1.0108,2,2,2,0.9306
2,329,7,2,0,2,2,3,1,1,2,0.7522,2,1,1,0.544
2,330,7,2,0,1,1,2,1,1,1,0.5787,2,1,1,0.5626
2,331,7,2,0,1,1,1,2,1,1,0.6208,1,1,1,0.8606
2,332,7,2,1,1,1,3,1,1,1,0.677,1,2,2,0.8528
2,333,7,2,1,2,2,2,2,1,2,0.6809,2,1,1,0.6647
2,334,7,2,0,2,1,4,1,0,1,0.7099,2,1,1,0.8484
2,335,7,2,0,2,1,6,2,0,2,0.6648,1,1,1,0.7765
2,336,7,2,0,1,2,6,1,0,1,0.7798,2,2,1,0.5716
2,337,8,1,1,1,1,3,2,1,1,0.8549,2,2,2,0.5187
2,338,8,1,1,1,2,5,2,0,1,0.6241,2,2,2,0.6078
2,339,8,1,0,2,2,6,2,1,2,0.7706,1,2,2,0.6904
2,340,8,1,1,1,1,2,1,1,1,0.695,1,1,1,0.4869
2,341,8,1,1,2,1,2,1,0,2,0.7555,1,2,2,0.5473
2,342,8,1,0,1,1,4,1,1,1,0.6461,2,2,2,0.5658
2,343,8,1,1,2,2,3,1,1,2,0.8044,1,1,1,0.5962
2,344,8,1,0,2,2,3,1,1,2,0.7472,2,2,2,0.475
2,345,8,1,1,2,2,4,1,1,2,0.6914,1,1,1,0.8032
2,346,8,1,0,2,2,2,1,1,2,0.7071,2,2,2,0.4349
2,347,8,1,1,2,1,5,1,0,2,0.6866,1,2,2,0.4144
2,348,8,1,0,1,2,4,2,0,1,0.7537,1,1,1,0.4174
2,349,8,1,0,1,1,5,2,1,1,0.6287,1,1,1,0.6125
2,350,8,1,1,2,1,6,2,0,2,0.7517,2,2,2,0.6075
2,351,8,1,1,1,2,6,2,0,1,0.6305,2,1,1,0.3583
2,352,8,1,1,1,1,5,1,1,1,0.6284,1,2,2,0.8042
2,353,8,1,0,2,2,4,1,1,2,0.7434,2,2,2,0.4712
2,354,8,1,1,1,1,3,1,1,1,0.6759,1,1,1,0.7237
2,355,8,1,1,2,2,2,2,1,2,0.6812,2,2,2,0.537
2,356,8,1,0,1,1,5,1,1,1,0.816,2,1,1,0.4158
2,357,8,1,1,2,2,1,2,1,2,0.6911,2,1,1,0.4189
2,358,8,1,1,1,2,4,2,0,1,0.6471,2,1,1,0.5029
2,359,8,1,0,2,1,5,2,0,2,0.7598,1,2,2,0.6795
2,360,8,1,1,1,2,3,2,0,1,0.7247,2,2,2,0.5164
2,361,8,1,1,2,1,2,2,0,2,0.8138,2,2,2,0.5416
2,362,8,1,0,2,1,2,1,0,2,0.9434,2,1,1,0.6072
2,363,8,1,1,2,1,5,2,0,2,0.8222,2,2,2,0.678
2,364,8,1,1,2,1,3,2,0,2,0.6422,2,1,1,0.946
2,365,8,1,1,2,2,2,1,1,2,0.8838,1,1,1,0.5475
2,366,8,1,0,2,2,6,1,1,2,0.6934,2,2,2,0.7412
2,367,8,1,0,1,2,1,1,0,1,0.8032,2,1,1,0.595
2,368,8,1,1,1,2,3,1,0,1,0.81,1,2,2,0.5378
2,369,8,1,1,1,2,2,1,0,1,0.9397,1,2,2,0.7954
2,370,8,1,1,1,2,6,1,0,1,0.7751,1,1,1,1.9109
2,371,8,1,1,2,2,6,2,1,2,1.2561,2,1,1,0.5999
2,372,8,1,1,1,2,4,1,0,1,0.9076,1,1,1,0.6994
2,373,8,1,0,2,1,6,1,0,2,1.0763,2,1,1,0.5481
2,374,8,1,1,1,1,4,2,1,1,0.7697,2,2,2,0.4974
2,375,8,1,1,2,2,3,2,1,7,7,2,1,1,1.2744
2,376,8,1,1,1,1,6,2,1,1,0.7547,2,2,2,0.5465
2,377,8,1,0,1,1,3,2,1,1,1.0763,1,2,2,1.1241
2,378,8,1,0,1,2,6,1,0,1,0.7457,2,2,2,0.4735
2,379,8,1,0,2,1,2,2,0,2,1.1261,1,1,1,0.4699
2,380,8,1,0,1,1,2,1,1,1,0.7386,2,1,1,0.5304
2,381,8,1,1,2,1,4,1,0,2,0.8682,1,1,1,0.852
2,382,8,1,0,1,2,3,1,0,1,0.7728,2,2,2,1.2046
2,383,8,1,0,2,1,3,2,0,2,0.7438,1,1,1,0.9836
2,384,8,1,0,2,2,5,1,1,2,0.8508,2,1,2,0.6426
3,1,1,1,0,2,1,1,1,0,2,0.8419,2,1,1,0.7617
3,2,1,1,0,2,2,5,1,1,2,0.5795,2,1,1,0.6913
3,3,1,1,0,1,2,1,2,0,1,0.7077,1,1,1,0.7555
3,4,1,1,1,1,1,2,1,1,1,0.9455,1,2,2,0.6733
3,5,1,1,1,2,2,6,2,1,2,0.8817,2,2,2,0.8655
3,6,1,1,1,1,1,5,1,1,1,0.7694,1,2,2,0.5612
3,7,1,1,1,2,1,5,1,0,2,0.6313,1,2,2,0.6791
3,8,1,1,1,1,1,1,1,1,1,0.7713,1,2,2,0.627
3,9,1,1,0,2,1,3,2,0,2,0.6383,1,1,1,0.75
3,10,1,1,0,1,2,5,2,0,1,0.8997,1,1,1,0.8835
3,11,1,1,1,2,1,4,1,0,2,0.6881,1,1,1,0.6078
3,12,1,1,1,2,1,2,2,0,2,0.6309,2,1,1,0.5506
3,13,1,1,0,2,2,3,2,1,2,0.5045,1,1,1,0.6163
3,14,1,1,0,2,1,5,2,0,2,0.5804,1,2,2,0.5002
3,15,1,1,0,2,1,4,2,0,2,0.6291,1,1,1,0.4849
3,16,1,1,1,2,1,5,2,0,2,0.4976,2,2,2,0.5454
3,17,1,1,1,2,1,3,2,0,2,0.5632,2,2,2,0.5471
3,18,1,1,1,2,2,4,1,1,2,0.6575,1,2,1,0.6413
3,19,1,1,1,2,1,2,1,0,2,0.6128,1,1,1,0.4686
3,20,1,1,0,2,1,5,1,0,2,0.5048,2,1,1,0.5526
3,21,1,1,0,2,1,6,2,0,2,0.5587,1,2,2,0.4784
3,22,1,1,0,1,1,5,1,1,1,0.5786,2,2,2,0.4984
3,23,1,1,0,1,2,2,1,0,1,0.6913,2,1,1,0.4831
3,24,1,1,1,1,2,5,1,0,1,0.6878,1,1,2,0.6076
3,25,1,1,1,2,2,2,2,1,2,0.6783,2,1,1,0.4061
3,26,1,1,1,2,2,1,2,1,2,0.6292,2,2,2,0.677
3,27,1,1,0,1,1,4,1,1,1,0.6934,2,2,2,0.6132
3,28,1,1,0,2,2,6,1,1,2,0.7524,2,1,1,0.6081
3,29,1,1,0,1,1,4,2,1,1,0.6312,1,2,2,0.551
3,30,1,1,0,1,1,2,2,1,1,0.5048,1,1,2,0.6806
3,31,1,1,1,2,1,1,1,0,2,0.669,1,1,2,0.7168
3,32,1,1,1,1,1,2,2,1,1,0.6582,2,2,2,0.5139
3,33,1,1,1,2,2,6,1,1,2,0.6193,1,2,2,0.4751
3,34,1,1,0,2,2,1,2,1,2,0.6275,1,1,1,0.6753
3,35,1,1,1,1,2,1,2,0,1,0.7727,2,1,1,0.7564
3,36,1,1,0,1,1,3,1,1,1,0.7545,2,2,2,0.8023
3,37,1,1,1,1,2,3,2,0,1,0.6893,2,2,2,0.545
3,38,1,1,1,2,2,5,1,1,2,0.8829,1,1,1,0.8667
3,39,1,1,1,1,1,6,1,1,1,0.7588,1,2,2,0.5506
3,40,1,1,1,1,2,2,2,0,1,0.6964,2,2,2,0.5522
3,41,1,1,1,1,1,1,2,1,1,0.6105,2,1,1,0.5303
3,42,1,1,1,1,2,4,1,0,1,0.6879,1,2,2,0.7997
3,43,1,1,0,2,2,1,1,1,2,0.5874,2,1,1,0.6352
3,44,1,1,0,1,2,6,2,0,1,0.6869,1,1,1,0.5427
3,45,1,1,0,2,2,4,1,1,2,0.4965,2,2,2,0.6083
3,46,1,1,0,1,2,6,1,0,1,0.7071,2,2,2,0.4989
3,47,1,1,0,2,1,2,1,0,2,0.616,2,1,1,0.4718
3,48,1,1,0,1,2,3,2,0,1,0.6242,1,2,2,0.48
3,49,2,2,0,2,1,6,2,0,2,0.666,1,1,2,1.1618
3,50,2,2,0,2,1,3,1,0,2,0.7318,2,1,1,1.0356
3,51,2,2,1,2,1,6,2,0,2,0.4952,2,1,1,0.991
3,52,2,2,1,2,2,4,2,1,2,0.614,2,1,2,1.1738
3,53,2,2,1,1,1,2,2,1,1,0.724,2,2,2,1.4758
3,54,2,2,1,1,2,1,2,0,1,0.726,2,1,1,0.9658
3,55,2,2,1,2,1,5,2,0,2,0.624,2,1,1,0.7998
3,56,2,2,1,1,1,6,2,1,1,0.4308,2,2,1,0.7346
3,57,2,2,0,2,1,2,1,0,2,0.7282,2,2,1,0.584
3,58,2,2,0,2,2,2,2,1,2,0.5032,1,2,2,0.935
3,59,2,2,1,2,2,3,2,1,2,0.4249,2,1,2,1.1126
3,60,2,2,0,1,1,2,2,1,1,0.4356,1,2,1,0.9313
3,61,2,2,1,1,1,5,1,1,1,0.5094,1,1,1,0.8772
3,62,2,2,1,1,2,4,2,0,1,0.6935,2,1,2,1.0613
3,63,2,2,0,1,1,4,1,1,1,0.6092,2,2,2,0.913
3,64,2,2,1,1,1,5,2,1,1,0.5661,2,2,2,0.7419
3,65,2,2,1,1,1,3,2,1,1,0.484,2,2,2,1.1077
3,66,2,2,1,2,2,4,1,1,2,0.5138,1,2,2,0.6255
3,67,2,2,1,1,2,3,2,0,2,0.4852,2,2,7,7
3,68,2,2,0,1,1,6,2,1,1,0.5917,1,2,2,0.8316
3,69,2,2,0,2,2,2,1,1,2,0.5787,2,1,1,0.8185
3,70,2,2,1,2,2,2,1,1,2,0.5657,1,1,1,0.8055
3,71,2,2,0,2,2,3,1,1,2,0.4365,2,2,2,0.8043
3,72,2,2,0,1,2,2,2,0,1,0.4875,1,1,2,0.7273
3,73,2,2,1,2,1,5,1,0,2,0.5406,1,1,1,1.0364
3,74,2,2,1,2,2,1,2,1,2,0.4961,2,2,2,0.8639
3,75,2,2,0,1,1,1,1,1,1,0.4243,2,1,2,0.8561
3,76,2,2,0,2,1,1,2,0,2,0.5518,1,2,2,1.1756
3,77,2,2,1,1,1,1,2,1,1,0.558,2,1,2,0.7338
3,78,2,2,0,2,1,1,1,0,2,0.7274,2,2,1,0.7752
3,79,2,2,1,1,2,3,1,0,1,0.5297,1,2,1,0.6415
3,80,2,2,0,1,1,5,2,1,1,0.4732,1,2,2,0.649
3,81,2,2,0,1,2,3,2,0,1,0.4852,1,1,2,0.725
3,82,2,2,0,2,2,4,1,1,2,0.6023,2,1,2,1.0981
3,83,2,2,0,1,2,1,2,0,1,0.5637,1,1,2,0.7395
3,84,2,2,1,1,2,4,1,0,1,0.6051,1,2,1,0.8449
3,85,2,2,0,1,2,6,2,0,1,0.5405,1,2,2,0.7163
3,86,2,2,0,2,2,5,1,1,2,0.8137,2,2,2,0.9254
3,87,2,2,1,2,2,6,1,1,2,0.491,1,2,2,1.1788
3,88,2,2,1,1,2,1,1,0,1,0.8055,1,1,2,0.7893
3,89,2,2,0,2,1,3,2,0,2,0.6601,1,2,2,0.6439
3,90,2,2,0,2,1,4,2,0,2,0.6316,1,2,2,0.7434
3,91,2,2,0,1,2,2,1,0,1,0.6892,2,1,1,0.865
3,92,2,2,0,2,2,3,2,1,2,0.5769,1,1,1,0.8167
3,93,2,2,0,1,2,5,1,0,1,0.761,2,1,1,0.8729
3,94,2,2,1,2,2,2,2,1,2,0.4855,2,2,2,0.7253
3,95,2,2,1,2,1,4,1,0,2,0.6188,1,1,1,1.1786
3,96,2,2,1,2,1,3,2,0,2,0.5611,2,1,1,0.7369
3,97,3,2,0,2,1,4,1,0,2,0.5138,2,2,1,0.8816
3,98,3,2,1,2,2,5,2,1,2,0.4309,2,1,1,0.4787
3,99,3,2,0,2,2,1,2,1,2,0.5031,1,2,1,0.5509
3,100,3,2,0,1,2,5,2,0,1,0.5408,1,1,1,0.5245
3,101,3,2,0,2,1,2,2,0,2,0.5829,1,2,1,1.0146
3,102,3,2,1,1,2,2,2,0,1,0.5861,2,1,1,0.6979
3,103,3,2,1,1,2,2,1,0,1,0.551,1,1,1,1.0467
3,104,3,2,0,1,1,2,1,1,1,0.5587,2,1,1,0.6064
3,105,3,2,1,2,2,5,1,1,2,0.5302,1,2,2,0.706
3,106,3,2,0,1,2,4,2,0,1,0.7511,1,1,1,0.6708
3,107,3,2,1,2,1,1,1,0,2,0.827,1,2,2,1.1948
3,108,3,2,0,1,1,3,2,1,1,0.6752,1,1,1,1.1069
3,109,3,2,0,2,1,6,1,0,2,0.8042,2,2,1,0.916
3,110,3,2,1,2,1,3,1,0,2,0.7331,1,1,1,0.6529
3,111,3,2,1,1,2,5,2,0,1,0.6289,2,2,1,1.1246
3,112,3,2,1,2,2,3,1,1,2,0.666,1,1,1,1.5458
3,113,3,2,1,1,1,6,1,1,1,0.8077,1,2,2,1.0475
3,114,3,2,0,1,2,6,1,0,1,0.8154,2,2,2,0.8632
3,115,3,2,1,1,1,4,2,1,1,0.5516,2,1,1,0.9194
3,116,3,2,1,1,1,4,1,1,1,0.6417,1,2,1,1.0734
3,117,3,2,0,2,1,5,2,0,2,0.8538,1,1,1,0.9655
3,118,3,2,0,1,1,4,2,1,1,0.4841,1,1,2,0.9799
3,119,3,2,1,2,1,2,1,0,1,0.4586,1,1,1,1.1642
3,120,3,2,0,1,1,1,2,1,1,0.5467,1,1,1,0.6585
3,121,3,2,0,2,2,5,2,1,2,0.5587,1,2,2,0.8624
3,122,3,2,1,2,1,1,2,0,2,0.6266,2,2,1,1.1864
3,123,3,2,1,2,1,4,2,0,2,0.5931,2,2,2,1.0249
3,124,3,2,1,2,2,6,2,1,2,0.717,2,2,2,1.1488
3,125,3,2,0,1,1,3,1,1,1,0.5667,2,1,1,1.1904
3,126,3,2,1,1,2,6,2,0,1,0.6891,2,1,1,0.8649
3,127,3,2,1,2,1,2,2,0,2,0.5533,2,2,2,0.857
3,128,3,2,1,1,2,5,1,0,1,0.6499,1,1,1,0.8257
3,129,3,2,0,1,1,6,1,1,1,0.6774,2,1,1,0.7892
3,130,3,2,0,2,2,6,1,1,2,0.7401,2,2,2,1.0439
3,131,3,2,0,2,2,4,2,1,2,0.6198,1,1,1,0.7956
3,132,3,2,1,2,1,6,1,0,2,0.6355,1,1,2,0.8113
3,133,3,2,0,1,2,1,1,0,1,0.7226,2,1,1,1.0903
3,134,3,2,0,2,2,6,2,1,2,0.5956,1,2,2,0.8994
3,135,3,2,0,1,2,4,1,0,1,0.6283,2,2,2,0.8041
3,136,3,2,1,1,1,1,1,1,1,0.516,1,1,1,0.8838
3,137,3,2,1,1,1,3,1,1,1,0.6884,1,2,1,1.1202
3,138,3,2,0,2,1,5,1,0,2,0.5975,2,2,2,0.9653
3,139,3,2,0,1,2,3,1,0,1,0.6118,2,2,2,0.9796
3,140,3,2,0,2,2,1,1,1,2,0.8232,2,1,2,0.807
3,141,3,2,1,1,2,6,1,0,1,0.6543,1,1,1,0.83
3,142,3,2,1,1,1,2,1,1,1,0.5067,1,2,2,1.0025
3,143,3,2,0,1,1,5,1,1,1,0.6137,2,2,2,0.9175
3,144,3,2,1,2,2,1,1,1,2,0.564,1,2,2,0.8037
3,145,4,1,0,1,1,1,2,1,1,0.7204,1,1,1,1.6001
3,146,4,1,1,2,2,1,1,1,2,0.6856,1,1,1,0.6694
3,147,4,1,1,1,2,5,2,0,1,0.6858,2,2,2,0.7336
3,148,4,1,1,1,1,6,2,1,1,0.6912,2,1,1,0.739
3,149,4,1,0,2,2,6,2,1,2,0.7605,1,1,1,1.5123
3,150,4,1,0,1,2,1,1,0,1,0.7456,2,1,1,0.6654
3,151,4,1,0,2,1,4,1,0,2,0.6817,2,1,1,0.5376
3,152,4,1,1,1,1,4,1,1,1,0.6194,1,1,1,0.5392
3,153,4,1,1,1,2,3,1,0,1,0.813,1,1,1,0.4768
3,154,4,1,0,2,2,2,2,1,2,0.5535,1,1,1,0.5373
3,155,4,1,1,1,2,6,2,0,1,0.7118,2,2,2,0.5036
3,156,4,1,0,1,1,6,1,1,1,0.7487,2,2,2,0.6685
3,157,4,1,0,1,1,1,1,1,1,0.7607,2,2,2,0.6805
3,158,4,1,0,2,2,2,1,1,2,0.6969,2,1,1,0.6166
3,159,4,1,0,1,2,5,1,0,1,0.5286,2,1,1,0.7685
3,160,4,1,0,2,2,3,1,1,2,0.7547,2,2,2,0.5465
3,161,4,1,1,2,2,4,2,1,2,0.6923,2,2,2,0.4841
3,162,4,1,1,2,1,4,2,0,2,0.869,2,2,2,0.4688
3,163,4,1,1,1,1,4,2,1,1,0.7492,2,2,2,0.413
3,164,4,1,1,1,2,2,1,0,1,0.7406,1,2,2,0.4683
3,165,4,1,0,2,1,6,1,0,2,0.7487,2,2,2,0.5405
3,166,4,1,1,2,2,3,2,1,2,0.4826,2,2,2,0.4663
3,167,4,1,0,1,2,4,1,0,1,0.9505,2,2,2,0.5503
3,168,4,1,1,2,1,6,1,0,2,0.7771,1,1,1,0.5049
3,169,4,1,0,1,2,4,2,0,1,0.686,1,2,2,0.5418
3,170,4,1,0,2,1,3,1,0,2,0.6877,2,1,1,0.4794
3,171,4,1,1,2,2,5,2,1,2,0.6319,2,2,2,0.5516
3,172,4,1,0,1,1,3,2,1,1,0.6857,1,2,2,0.4775
3,173,4,1,1,2,1,3,1,0,2,0.6182,1,2,2,0.474
3,174,4,1,0,2,2,5,2,1,2,0.5507,1,2,2,0.4704
3,175,4,1,0,1,2,3,1,0,1,0.8671,2,1,1,0.8509
3,176,4,1,0,2,1,1,2,0,2,0.743,1,1,1,0.4708
3,177,4,1,1,2,1,6,2,0,2,0.6115,2,2,2,0.4673
3,178,4,1,0,1,2,2,2,0,1,0.8117,1,2,2,1.4355
3,179,4,1,0,2,2,4,2,1,2,0.6871,1,2,2,0.5429
3,180,4,1,0,1,1,2,1,1,1,0.677,2,1,1,0.5968
3,181,4,1,1,1,1,3,1,1,1,0.7595,1,1,1,0.6793
3,182,4,1,1,1,2,6,1,0,1,0.8237,1,2,2,0.4875
3,183,4,1,0,2,1,2,2,0,2,0.5642,1,1,1,0.548
3,184,4,1,0,1,1,5,2,1,1,0.5018,1,1,1,0.4216
3,185,4,1,0,1,1,6,2,1,1,0.621,1,2,2,0.4769
3,186,4,1,1,1,2,4,2,0,1,0.6815,2,1,1,0.5374
3,187,4,1,1,1,1,3,2,1,1,0.6192,2,1,1,0.4749
3,188,4,1,1,1,1,5,2,1,1,0.6156,2,1,1,0.7274
3,189,4,1,1,2,1,1,2,0,2,0.557,2,2,2,0.6048
3,190,4,1,1,2,2,2,1,1,2,0.6278,1,1,1,0.4836
3,191,4,1,1,2,2,3,1,1,2,0.5602,1,2,2,0.544
3,192,4,1,1,1,2,1,1,0,1,0.6781,1,1,1,0.5979
3,193,5,2,0,1,2,5,1,0,1,0.6557,2,1,1,0.7035
3,194,5,2,1,2,1,6,1,0,2,0.6206,1,1,1,0.7963
3,195,5,2,0,2,2,2,2,1,2,0.6311,1,1,1,0.7428
3,196,5,2,0,2,2,4,1,1,2,0.6012,2,1,1,0.6489
3,197,5,2,0,2,1,3,2,0,2,0.5491,1,2,2,0.8529
3,198,5,2,0,2,1,1,2,0,2,0.5818,1,1,1,1.0136
3,199,5,2,1,2,1,3,2,0,2,0.549,2,1,2,1.2368
3,200,5,2,0,1,1,6,2,1,1,0.5663,1,2,2,0.8701
3,201,5,2,0,1,2,3,1,0,1,0.6225,2,1,1,1.2463
3,202,5,2,1,1,1,2,2,1,1,0.4758,2,2,2,0.5876
3,203,5,2,1,1,1,3,1,1,1,0.6223,1,1,1,0.9262
3,204,5,2,1,1,2,6,1,0,1,0.7477,1,1,1,0.8595
3,205,5,2,1,2,1,5,1,0,2,0.5596,1,1,1,0.6714
3,206,5,2,0,2,1,3,1,0,2,1.3278,2,2,2,0.9276
3,207,5,2,1,1,1,1,1,1,1,0.7609,1,2,1,1.4487
3,208,5,2,1,2,1,1,2,0,2,0.6658,2,2,2,0.6495
3,209,5,2,1,2,1,6,2,0,2,0.6137,2,2,2,1.0455
3,210,5,2,0,2,1,5,2,0,2,0.7494,1,1,2,1.7572
3,211,5,2,1,1,2,6,2,0,1,0.6514,2,1,1,0.8272
3,212,5,2,0,2,2,1,2,1,2,0.8929,1,2,1,0.8768
3,213,5,2,0,1,1,6,1,1,1,0.7932,2,2,2,0.8409
3,214,5,2,1,1,2,1,2,0,1,0.6927,2,2,2,0.6764
3,215,5,2,0,1,1,1,1,1,1,0.7451,2,2,1,0.8568
3,216,5,2,1,2,2,5,2,1,2,0.6048,2,1,1,0.8446
3,217,5,2,1,2,2,3,2,1,2,0.6323,2,1,2,1.064
3,218,5,2,1,2,2,4,1,1,2,0.6642,1,2,2,0.712
3,219,5,2,0,1,2,1,1,0,1,0.6813,2,2,2,0.7291
3,220,5,2,1,1,1,4,2,1,1,0.6749,2,1,1,0.7227
3,221,5,2,1,2,2,4,2,1,2,0.5523,2,2,2,0.7921
3,222,5,2,1,2,1,5,2,0,2,0.6791,2,2,2,0.7908
3,223,5,2,0,1,1,2,1,1,1,0.8058,2,1,1,0.9176
3,224,5,2,1,1,2,2,1,0,1,0.7392,1,2,1,0.979
3,225,5,2,0,2,2,4,2,1,2,0.4695,1,1,1,0.6453
3,226,5,2,1,1,2,3,1,0,1,0.825,1,1,1,0.6808
3,227,5,2,0,1,1,4,2,1,1,0.6854,1,1,2,0.7331
3,228,5,2,1,1,2,2,2,0,1,0.6157,2,1,1,0.9835
3,229,5,2,0,2,2,1,1,1,2,0.566,2,2,2,0.8698
3,230,5,2,0,1,2,4,1,0,1,0.6222,2,2,1,0.798
3,231,5,2,0,2,1,5,1,0,2,0.593,2,1,1,0.6408
3,232,5,2,0,1,2,1,2,0,1,0.6807,1,1,1,0.7925
3,233,5,2,1,1,1,1,2,1,1,0.6155,2,2,2,0.9193
3,234,5,2,1,2,2,2,2,1,2,0.6768,2,1,1,0.7886
3,235,5,2,1,1,2,1,1,0,1,0.6116,1,2,1,0.8515
3,236,5,2,0,2,2,6,1,1,2,0.5353,2,2,1,0.7111
3,237,5,2,1,2,1,2,1,0,2,0.6642,1,1,1,0.904
3,238,5,2,1,1,1,2,1,1,1,0.6969,1,2,2,1.0007
3,239,5,2,0,2,2,2,1,1,2,0.6236,2,2,1,0.8634
3,240,5,2,0,2,2,3,2,1,2,0.5356,1,2,2,0.7754
3,241,6,1,0,2,2,6,1,1,2,0.6415,2,1,1,1.0093
3,242,6,1,0,1,1,5,1,1,1,0.7603,2,2,2,0.8721
3,243,6,1,1,1,2,1,2,0,1,1.2005,2,1,1,0.4802
3,244,6,1,0,2,2,4,2,1,2,0.7606,1,2,2,0.5525
3,245,6,1,0,1,2,5,2,0,1,0.6225,1,1,1,0.6703
3,246,6,1,0,2,2,3,2,1,2,0.547,1,1,1,0.4668
3,247,6,1,0,1,1,6,2,1,1,1.0672,1,1,1,0.603
3,248,6,1,1,1,1,3,2,1,1,0.5502,2,1,1,0.47
3,249,6,1,0,1,2,1,2,0,1,0.6107,1,2,2,0.7224
3,250,6,1,1,1,1,3,1,1,1,0.808,1,2,2,0.5996
3,251,6,1,0,2,2,3,1,1,2,0.6111,2,2,2,0.9789
3,252,6,1,1,1,1,2,1,1,1,0.6305,1,1,1,0.4862
3,253,6,1,0,2,1,4,2,0,2,0.7549,1,1,2,0.4827
3,254,6,1,1,1,2,3,2,0,1,0.8514,2,2,2,0.5152
3,255,6,1,1,2,1,4,1,0,2,0.6323,1,2,2,0.5521
3,256,6,1,1,1,2,3,1,0,1,0.8142,1,1,1,0.734
3,257,6,1,1,2,1,1,1,0,2,0.9476,1,2,2,0.4834
3,258,6,1,1,2,2,6,2,1,2,0.6241,2,2,2,0.5438
3,259,6,1,0,2,1,5,2,0,2,0.6021,1,1,1,0.4579
3,260,6,1,1,2,2,6,1,1,2,0.5463,1,1,1,0.5941
3,261,6,1,0,2,1,1,1,0,2,1.1291,2,1,2,1.3049
3,262,6,1,1,1,1,1,1,1,1,0.9022,1,1,1,0.694
3,263,6,1,1,2,1,6,2,0,2,0.6634,2,1,1,0.5831
3,264,6,1,0,1,2,6,1,0,1,1.0019,2,1,1,0.7297
3,265,6,1,1,1,1,2,2,1,7,7,2,1,7,7
3,266,6,1,0,2,1,5,1,0,2,0.7625,2,2,2,0.4903
3,267,6,1,0,2,1,3,1,0,2,0.631,2,1,1,0.6787
3,268,6,1,1,1,1,4,2,1,1,0.7592,2,1,1,0.935
3,269,6,1,1,1,2,4,2,0,1,0.9485,2,2,2,0.6123
3,270,6,1,0,2,1,2,2,0,2,1.0076,1,2,2,0.6713
3,271,6,1,1,2,1,1,2,0,2,0.74,2,2,2,0.5318
3,272,6,1,1,1,1,4,1,1,1,0.5496,1,2,2,0.4694
3,273,6,1,0,1,1,3,1,1,1,0.691,2,1,1,0.8028
3,274,6,1,0,1,2,4,2,0,1,0.678,1,2,2,0.5338
3,275,6,1,0,1,1,4,1,1,1,0.6796,2,2,2,0.7274
3,276,6,1,0,1,2,2,2,0,1,0.6092,1,2,2,0.465
3,277,6,1,0,2,1,4,1,0,2,0.9492,2,2,2,0.549
3,278,6,1,0,1,2,6,2,0,1,0.6308,1,2,2,0.6146
3,279,6,1,1,1,2,4,1,0,1,0.7539,1,1,1,0.6097
3,280,6,1,1,2,1,6,1,0,2,0.6327,1,2,2,0.6165
3,281,6,1,0,2,2,4,1,1,2,0.7557,2,2,2,0.9315
3,282,6,1,0,1,1,1,1,1,1,0.6251,2,1,1,0.4808
3,283,6,1,1,1,2,2,2,0,1,0.8135,2,1,1,0.7973
3,284,6,1,0,1,1,2,2,1,1,0.6843,1,2,2,0.5401
3,285,6,1,1,2,2,1,1,1,2,0.8308,1,1,1,0.4946
3,286,6,1,0,1,2,5,1,0,1,0.6757,2,1,1,0.5315
3,287,6,1,0,1,2,3,1,0,7,7,2,2,2,0.9414
3,288,6,1,0,2,1,3,2,0,2,0.6754,1,2,2,1.1712
3,289,7,1,1,2,1,3,1,0,2,1.1028,1,2,2,0.5106
3,290,7,1,0,1,2,1,1,0,1,1.2677,2,1,1,0.6115
3,291,7,1,1,2,2,5,2,1,2,0.4308,2,2,2,0.4145
3,292,7,1,1,2,2,3,2,1,2,0.5618,2,1,1,0.4816
3,293,7,1,0,2,1,2,1,0,2,0.9422,2,1,1,0.478
3,294,7,1,0,1,1,1,2,1,1,0.7585,1,1,1,0.9982
3,295,7,1,1,2,2,5,1,1,2,0.5573,1,1,1,0.477
3,296,7,1,0,2,2,2,2,1,2,0.6294,1,1,1,0.4212
3,297,7,1,0,2,2,1,1,1,2,0.8767,2,1,1,0.4125
3,298,7,1,0,1,2,4,1,0,1,0.932,2,2,2,0.6598
3,299,7,1,1,1,2,5,2,0,1,0.7049,2,2,2,0.6247
3,300,7,1,1,2,2,2,1,1,2,0.5484,1,2,2,0.4682
3,301,7,1,0,2,2,2,1,1,2,0.5971,2,1,1,0.7729
3,302,7,1,1,1,1,5,2,1,1,0.8871,2,2,2,0.5509
3,303,7,1,1,1,2,5,1,0,1,0.8248,1,2,2,0.4886
3,304,7,1,0,1,1,6,1,1,1,0.8212,2,1,1,0.613
3,305,7,1,0,1,2,3,2,0,1,0.7523,1,2,2,0.608
3,306,7,1,1,2,2,1,2,1,2,0.695,2,1,1,0.6149
3,307,7,1,0,1,1,3,2,1,1,0.8233,1,2,2,0.423
3,308,7,1,1,1,2,1,1,0,1,0.6108,1,2,2,0.6586
3,309,7,1,1,1,1,5,1,1,1,0.7677,1,1,1,0.4314
3,310,7,1,1,1,1,6,2,1,1,0.6192,2,1,1,0.731
3,311,7,1,0,1,1,5,2,1,1,0.6415,1,2,2,0.6253
3,312,7,1,1,1,2,6,2,0,1,0.677,2,1,1,0.4048
3,313,7,1,1,2,2,4,1,1,2,0.7087,1,2,2,0.7566
3,314,7,1,1,2,2,2,2,1,2,0.6265,2,2,2,0.5463
3,315,7,1,1,2,1,4,2,0,2,0.8842,2,2,2,0.548
3,316,7,1,0,1,1,4,2,1,1,0.7578,1,2,2,0.4856
3,317,7,1,0,2,1,1,2,0,2,0.7543,1,2,2,0.482
3,318,7,1,0,2,2,5,2,1,2,0.8147,1,1,1,0.7345
3,319,7,1,1,2,1,2,2,0,2,0.7443,2,1,1,2.2641
3,320,7,1,0,2,2,5,1,1,2,0.6164,2,2,2,0.5361
3,321,7,1,0,2,1,6,2,0,2,0.618,1,1,1,0.4737
3,322,7,1,1,1,2,2,1,0,1,0.8064,1,2,2,0.6622
3,323,7,1,1,2,1,5,1,0,2,0.5793,1,1,1,0.4991
3,324,7,1,1,2,1,2,1,0,2,0.6802,1,2,2,0.536
3,325,7,1,1,2,1,3,2,0,2,0.5303,2,2,2,0.5141
3,326,7,1,1,2,1,5,2,0,2,0.8233,2,2,2,0.551
3,327,7,1,1,1,1,1,2,1,1,0.7609,2,2,2,0.5527
3,328,7,1,0,1,1,2,1,1,1,0.8147,2,2,2,0.4785
3,329,7,1,1,2,2,3,1,1,2,0.7589,1,1,1,0.4867
3,330,7,1,1,1,2,6,1,0,1,0.8194,1,1,1,0.6752
3,331,7,1,1,1,1,6,1,1,1,0.6798,1,1,1,0.5996
3,332,7,1,0,2,2,1,2,1,2,0.6109,1,1,1,0.9146
3,333,7,1,0,2,2,6,2,1,2,0.6082,1,2,2,0.464
3,334,7,1,1,2,2,4,2,1,2,0.4766,2,1,1,1.1004
3,335,7,1,0,2,1,6,1,0,2,0.594,2,1,1,0.5778
3,336,7,1,0,1,2,2,1,0,1,0.6125,2,1,1,0.5323
3,337,8,2,0,1,2,6,1,0,1,0.8916,2,2,2,1.0674
3,338,8,2,0,2,2,5,1,1,2,0.6315,2,1,1,0.7433
3,339,8,2,1,2,2,5,1,1,2,0.6251,1,2,1,0.8009
3,340,8,2,0,1,2,3,2,0,1,0.7239,1,1,1,0.7076
3,341,8,2,1,1,1,5,2,1,1,0.6248,2,1,1,0.8005
3,342,8,2,1,1,1,6,1,1,1,1.5078,1,2,1,0.7236
3,343,8,2,1,1,2,4,1,0,1,0.7981,1,1,1,0.6539
3,344,8,2,1,2,1,2,2,0,2,0.8101,2,1,1,0.9858
3,345,8,2,1,2,1,1,1,0,2,0.6206,1,1,1,1.0524
3,346,8,2,0,2,1,2,2,0,2,0.5525,1,2,1,0.6003
3,347,8,2,1,1,2,5,2,0,1,0.5482,2,1,1,0.852
3,348,8,2,1,2,2,1,1,1,2,0.5522,1,1,1,1.24
3,349,8,2,1,2,2,2,1,1,2,0.5283,1,2,2,1.3441
3,350,8,2,1,2,2,3,1,1,2,0.4978,1,2,2,0.9296
3,351,8,2,0,2,1,4,1,0,2,0.6232,2,2,2,0.735
3,352,8,2,0,2,1,6,2,0,2,0.5006,1,2,2,0.6763
3,353,8,2,1,1,1,5,1,1,1,0.8208,1,1,1,0.8045
3,354,8,2,0,2,2,5,2,1,2,0.5635,1,2,1,0.7393
3,355,8,2,1,1,2,3,2,0,1,0.6858,2,2,1,0.8616
3,356,8,2,1,2,2,6,2,1,2,0.714,2,1,1,0.7619
3,357,8,2,0,1,2,2,2,0,1,0.6201,1,2,2,0.7319
3,358,8,2,0,1,2,4,2,0,2,0.6777,1,2,2,1.6196
3,359,8,2,1,1,1,6,2,1,1,0.6476,2,2,2,0.8874
3,360,8,2,0,2,2,6,2,1,2,0.4882,1,1,1,0.728
3,361,8,2,0,2,1,2,1,0,2,0.6622,2,2,1,0.7739
3,362,8,2,0,1,2,6,2,0,1,0.616,1,1,1,0.5997
3,363,8,2,0,1,1,5,1,1,1,0.5587,2,2,2,0.7345
3,364,8,2,1,2,1,4,2,0,2,0.6281,2,2,2,0.5479
3,365,8,2,0,1,2,5,2,0,1,0.8217,1,1,1,0.8055
3,366,8,2,0,1,2,2,1,0,1,0.7565,2,1,1,0.6763
3,367,8,2,0,2,1,4,2,0,2,0.7096,1,1,2,1.0134
3,368,8,2,0,1,1,5,2,1,1,0.7129,1,2,2,0.6966
3,369,8,2,1,2,2,1,2,1,2,0.666,2,1,1,0.7778
3,370,8,2,0,1,1,2,2,1,1,0.7405,1,1,1,1.2364
3,371,8,2,1,1,1,4,1,1,1,0.6291,1,1,1,0.6769
3,372,8,2,0,2,1,6,1,0,2,0.6175,2,2,2,0.9213
3,373,8,2,0,2,1,1,1,0,2,0.5914,2,1,1,1.2791
3,374,8,2,1,1,1,3,2,1,1,0.9515,2,1,1,1.0633
3,375,8,2,1,1,2,5,1,0,1,0.8834,1,1,1,0.9952
3,376,8,2,1,2,1,3,1,0,2,0.7579,1,2,2,0.9337
3,377,8,2,1,2,1,4,1,0,2,0.6913,1,1,1,0.8671
3,378,8,2,1,2,2,6,1,1,2,0.5554,1,2,2,0.7952
3,379,8,2,0,1,1,3,1,1,1,1.2634,2,1,2,1.2472
3,380,8,2,1,1,2,4,2,0,1,0.5833,2,2,2,1.3991
3,381,8,2,0,2,2,3,1,1,2,0.6912,2,1,1,1.123
3,382,8,2,0,1,1,3,2,1,1,0.5525,1,2,2,1.0483
3,383,8,2,0,1,1,1,2,1,1,0.5771,1,2,1,0.8169
3,384,8,2,0,1,1,4,1,1,1,0.5883,2,2,2,1.2761
4,1,1,2,0,2,2,2,2,1,2,1.1506,1,2,2,1.7104
4,2,1,2,0,2,2,4,2,1,2,1.138,1,2,2,0.9298
4,3,1,2,1,2,1,6,1,0,2,1.3914,1,1,1,0.9911
4,4,1,2,0,2,1,3,2,0,2,0.9105,1,1,1,1.1503
4,5,1,2,1,2,2,5,2,1,2,0.8242,2,2,2,1.2559
4,6,1,2,1,1,2,5,2,0,1,0.876,2,1,2,1.4358
4,7,1,2,0,1,2,3,2,0,1,1.0434,1,2,2,0.9632
4,8,1,2,1,2,1,2,1,0,2,0.9702,1,1,1,0.698
4,9,1,2,0,1,2,2,1,0,1,1.5751,2,1,1,1.2389
4,10,1,2,1,1,2,1,1,0,1,1.0105,1,2,2,1.1223
4,11,1,2,1,2,2,6,2,1,2,0.9999,2,2,1,0.9196
4,12,1,2,0,2,2,5,1,1,2,0.853,2,2,2,1.2847
4,13,1,2,1,2,2,4,1,1,2,0.8813,1,2,2,0.8011
4,14,1,2,0,1,1,6,1,1,1,1.5841,2,2,1,1.0559
4,15,1,2,1,1,2,3,1,0,2,1.0254,1,2,2,0.9103
4,16,1,2,0,2,1,2,1,0,2,0.9407,2,2,1,0.7965
4,17,1,2,0,2,1,2,2,0,2,0.9233,1,2,1,0.7151
4,18,1,2,0,1,1,6,2,1,1,0.9242,1,1,1,0.844
4,19,1,2,1,1,1,2,2,1,1,0.9517,2,1,1,0.5515
4,20,1,2,0,2,2,3,1,1,1,1.0814,2,2,1,0.9073
4,21,1,2,1,2,1,1,2,0,2,1.2012,2,1,2,0.7369
4,22,1,2,1,2,1,2,2,0,2,0.9395,2,1,1,0.7953
4,23,1,2,0,2,2,6,1,1,2,1.3745,2,1,1,0.7823
4,24,1,2,0,2,1,4,1,0,2,0.873,2,2,1,0.7928
4,25,1,2,0,2,1,6,1,0,2,0.7916,2,1,2,0.9033
4,26,1,2,0,1,2,1,1,0,1,1.0522,2,2,1,0.78
4,27,1,2,0,1,1,3,2,1,1,0.9825,1,1,1,0.5183
4,28,1,2,1,1,2,2,1,0,1,0.8797,1,1,1,0.8635
4,29,1,2,1,2,1,4,2,0,2,0.9359,2,1,2,0.8557
4,30,1,2,0,2,1,4,2,0,2,0.7316,1,1,2,0.6515
4,31,1,2,0,2,1,3,1,0,2,0.8723,2,1,1,1.3041
4,32,1,2,1,2,2,1,2,1,2,0.8249,2,2,2,1.4486
4,33,1,2,1,1,1,3,2,1,1,0.9445,2,1,1,0.8003
4,34,1,2,1,1,1,5,2,1,1,0.8793,2,2,2,1.3751
4,35,1,2,0,2,1,5,2,0,2,0.6333,1,1,1,0.6171
4,36,1,2,0,2,2,1,2,1,2,0.7328,1,2,1,1.0366
4,37,1,2,1,1,1,5,1,1,1,1.2245,1,1,1,1.0163
4,38,1,2,0,1,1,5,2,1,1,0.8835,1,1,1,0.6753
4,39,1,2,0,1,2,6,2,0,1,1.1397,1,1,1,0.7395
4,40,1,2,1,2,2,2,2,1,2,0.825,2,1,1,0.8088
4,41,1,2,1,2,1,4,1,0,2,0.8238,1,2,1,1.5116
4,42,1,2,0,2,1,6,2,0,2,0.8684,1,1,1,0.9162
4,43,1,2,0,2,2,2,1,1,2,0.9415,2,2,1,1.6293
4,44,1,2,0,1,2,4,1,0,1,0.8774,2,2,2,0.9892
4,45,1,2,1,1,1,6,2,1,1,0.7975,2,1,1,0.9733
4,46,1,2,1,2,2,2,1,1,2,0.8118,1,2,2,0.8596
4,47,1,2,0,1,2,5,1,0,1,0.868,2,2,1,1.1078
4,48,1,2,1,2,2,3,2,1,2,0.8529,2,2,2,1.2846
4,49,2,1,0,1,2,1,2,0,1,1.0921,1,2,2,0.7559
4,50,2,1,1,1,2,1,1,0,1,1.01,1,2,2,0.8658
4,51,2,1,1,2,1,2,2,0,2,0.8859,2,2,2,0.6777
4,52,2,1,1,1,2,2,2,0,1,0.8104,2,2,2,0.6661
4,53,2,1,0,2,2,2,1,1,2,0.7465,2,1,1,0.6663
4,54,2,1,1,2,1,1,2,0,2,0.8107,2,2,2,0.6665
4,55,2,1,0,2,1,1,1,0,2,1.0721,2,1,1,0.6079
4,56,2,1,1,1,2,6,1,0,1,1.1311,1,1,1,1.4989
4,57,2,1,1,2,1,6,2,0,2,0.7557,2,1,1,0.8035
4,58,2,1,1,2,2,4,1,1,2,0.7427,1,2,2,0.6625
4,59,2,1,0,1,2,2,2,0,1,0.8069,1,1,1,1.1107
4,60,2,1,0,1,1,6,1,1,1,1.064,2,1,1,0.5998
4,61,2,1,0,1,1,1,2,1,1,0.931,1,1,1,0.4668
4,62,2,1,0,2,2,4,1,1,2,0.8753,2,1,1,0.539
4,63,2,1,0,2,2,1,1,1,2,1.1329,2,2,2,0.7327
4,64,2,1,0,2,1,6,1,0,2,0.7425,2,1,1,0.5983
4,65,2,1,0,2,2,4,2,1,2,1.1973,1,1,1,0.733
4,66,2,1,0,2,2,5,2,1,2,0.6789,1,1,1,0.4706
4,67,2,1,0,1,2,4,2,0,1,0.8151,1,1,1,0.7349
4,68,2,1,1,1,2,5,1,0,1,1.0007,1,2,2,0.9845
4,69,2,1,1,1,1,2,1,1,1,0.9679,1,2,2,0.7597
4,70,2,1,1,1,1,3,1,1,1,0.938,1,1,1,0.9858
4,71,2,1,1,2,2,2,2,1,2,0.8765,2,1,1,0.7963
4,72,2,1,0,1,1,4,2,1,1,0.9393,1,1,1,0.795
4,73,2,1,1,2,1,5,2,0,2,0.6938,2,1,1,0.5496
4,74,2,1,0,1,1,2,1,1,1,1.3355,2,1,1,0.6792
4,75,2,1,1,2,2,4,2,1,2,1.0039,2,2,2,0.5396
4,76,2,1,1,1,1,5,1,1,1,0.9532,1,2,2,0.681
4,77,2,1,1,1,2,1,2,0,1,0.7666,2,1,1,0.8784
4,78,2,1,0,1,2,1,1,0,1,1.067,2,2,2,0.9868
4,79,2,1,0,2,1,2,1,0,2,0.8136,2,1,1,0.7333
4,80,2,1,0,1,2,5,1,0,1,0.9991,2,2,2,0.7269
4,81,2,1,0,1,1,3,2,1,1,0.7772,1,1,1,0.825
4,82,2,1,1,1,2,3,1,0,1,1.0724,1,2,1,0.9922
4,83,2,1,0,2,1,4,2,0,2,0.791,1,1,1,0.9027
4,84,2,1,1,2,1,4,2,0,2,0.6198,2,2,2,0.9236
4,85,2,1,1,1,2,2,1,0,1,0.8614,1,1,1,0.9092
4,86,2,1,1,2,2,1,1,1,2,0.8588,1,1,1,0.7145
4,87,2,1,0,1,1,4,1,1,1,0.7479,2,2,2,1.0517
4,88,2,1,0,1,2,6,2,0,1,0.9241,1,2,2,0.7158
4,89,2,1,1,2,2,1,2,1,2,0.953,2,2,2,0.5527
4,90,2,1,1,1,2,5,2,0,1,0.9428,2,2,2,1.1186
4,91,2,1,0,1,2,4,1,0,1,0.9439,2,2,2,1.3117
4,92,2,1,0,2,1,5,1,0,2,0.745,2,2,2,0.4727
4,93,2,1,0,2,2,2,2,1,2,0.8694,1,2,2,0.8532
4,94,2,1,0,1,1,1,1,1,1,0.9256,2,1,2,1.4854
4,95,2,1,0,2,2,5,1,1,2,0.7076,2,2,2,0.7554
4,96,2,1,0,1,2,2,1,0,1,1.5097,2,2,2,1.2374
4,97,3,1,0,1,2,3,2,0,1,1.1562,1,2,2,0.692
4,98,3,1,1,2,2,6,1,1,2,1.0049,1,2,1,0.7967
4,99,3,1,1,1,2,4,1,0,1,0.9992,1,1,1,0.919
4,100,3,1,1,2,2,3,2,1,2,0.8803,2,2,2,0.6721
4,101,3,1,1,2,1,1,1,0,2,0.6937,1,2,2,0.6135
4,102,3,1,0,2,2,3,1,1,2,1.0087,2,1,1,0.7365
4,103,3,1,0,1,2,3,1,0,1,0.8861,2,1,1,0.9339
4,104,3,1,0,2,2,6,2,1,2,0.9356,1,1,1,0.7274
4,105,3,1,1,2,2,2,1,1,2,0.7608,1,1,2,1.0646
4,106,3,1,1,1,1,6,1,1,1,1.1127,1,2,2,0.7765
4,107,3,1,1,1,1,4,2,1,1,0.879,2,1,1,1.0548
4,108,3,1,0,1,2,5,2,0,1,0.9389,1,2,2,0.8587
4,109,3,1,1,1,1,1,1,1,1,1.0879,1,1,1,1.0076
4,110,3,1,1,1,1,1,2,1,1,1.0028,2,1,1,1.2426
4,111,3,1,0,2,1,5,2,0,2,0.6472,1,2,2,0.6309
4,112,3,1,1,2,1,3,1,0,2,0.6826,1,2,2,0.6024
4,113,3,1,0,2,1,6,2,0,2,0.7417,1,2,2,0.7895
4,114,3,1,1,2,2,5,2,1,2,0.9325,2,1,1,1.0442
4,115,3,1,1,1,2,3,2,0,1,1.1439,2,1,1,2.1517
4,116,3,1,1,1,1,3,2,1,1,0.8776,2,1,2,0.6054
4,117,3,1,1,2,2,3,1,1,2,0.7284,1,2,2,0.5842
4,118,3,1,1,1,1,5,2,1,1,1.0147,2,1,1,0.8065
4,119,3,1,1,1,1,4,1,1,1,1.0657,1,1,1,0.7935
4,120,3,1,1,2,1,3,2,0,2,0.7445,2,1,1,0.7923
4,121,3,1,1,1,2,4,2,0,2,0.8882,2,1,1,0.8502
4,122,3,1,1,2,1,4,1,0,2,0.8704,1,2,2,0.7262
4,123,3,1,0,2,2,1,2,1,2,1.0678,1,1,1,0.7315
4,124,3,1,1,2,2,6,2,1,2,0.6775,2,1,1,0.7892
4,125,3,1,1,1,1,6,2,1,1,1.0601,2,2,2,0.6599
4,126,3,1,0,1,1,5,1,1,1,0.8801,2,2,2,0.6079
4,127,3,1,1,2,1,2,1,0,2,0.8869,1,2,2,0.6787
4,128,3,1,0,2,1,3,2,0,2,1.0033,1,1,1,0.6671
4,129,3,1,0,1,1,2,2,1,1,0.9395,1,2,2,0.9233
4,130,3,1,1,1,1,2,2,1,1,1.0126,2,1,1,0.7404
4,131,3,1,1,2,2,5,1,1,2,0.8025,1,2,2,0.5942
4,132,3,1,0,1,1,6,2,1,1,1.0013,1,2,2,0.729
4,133,3,1,0,2,1,2,2,0,2,0.9309,1,2,2,0.6587
4,134,3,1,0,1,1,5,2,1,1,0.82,1,2,2,0.6758
4,135,3,1,0,2,1,4,1,0,2,0.8084,2,1,1,1.0482
4,136,3,1,0,1,1,3,1,1,1,0.9964,2,2,1,0.6601
4,137,3,1,0,2,2,3,2,1,2,0.9163,1,2,2,0.8361
4,138,3,1,1,2,1,5,1,0,2,0.7518,1,1,1,0.6716
4,139,3,1,1,1,2,6,2,0,1,1.136,2,1,1,0.6718
4,140,3,1,0,1,2,6,1,0,1,1.1245,2,1,1,0.5322
4,141,3,1,0,2,1,3,1,0,2,0.7538,2,1,1,0.6736
4,142,3,1,0,2,2,6,1,1,2,0.7422,2,2,2,1.11
4,143,3,1,0,2,1,1,2,0,2,0.9,1,2,2,0.5638
4,144,3,1,1,2,1,6,1,0,2,0.7384,1,2,2,0.7222
4,145,4,2,1,2,1,5,2,0,2,0.8268,2,2,2,0.6186
4,146,4,2,1,1,2,3,2,0,1,0.7395,2,1,1,0.8513
4,147,4,2,0,1,2,3,1,0,1,0.8597,2,2,1,1.4834
4,148,4,2,1,1,2,2,2,0,1,0.8403,2,2,1,2.1681
4,149,4,2,1,1,1,2,1,1,1,0.7902,1,2,2,0.774
4,150,4,2,0,2,2,6,2,1,2,1.0163,1,1,1,1.8321
4,151,4,2,0,1,1,2,1,1,1,0.8234,2,2,2,0.7432
4,152,4,2,0,1,1,2,2,1,1,0.881,1,2,1,1.0568
4,153,4,2,1,1,1,6,1,1,1,0.7849,1,1,1,1.2167
4,154,4,2,0,1,1,1,2,1,1,0.7559,1,2,2,0.9317
4,155,4,2,0,2,2,1,1,1,2,0.7415,2,1,1,1.3652
4,156,4,2,0,1,1,4,2,1,1,0.9317,1,1,2,1.9395
4,157,4,2,0,2,2,4,1,1,2,0.6506,2,1,1,1.0184
4,158,4,2,0,1,2,2,2,0,1,0.8738,1,1,1,0.9216
4,159,4,2,0,1,1,1,1,1,1,0.8712,2,2,2,0.8549
4,160,4,2,0,1,2,1,2,0,1,0.7589,1,1,1,0.9347
4,161,4,2,0,1,1,4,1,1,1,0.7445,2,2,2,0.9202
4,162,4,2,1,2,2,4,2,1,2,1.0096,2,1,2,1.1853
4,163,4,2,0,2,1,1,1,0,2,0.9238,2,2,2,1.1637
4,164,4,2,1,1,2,4,2,0,1,1.3899,2,2,2,1.1177
4,165,4,2,0,2,1,1,2,0,2,0.879,1,2,2,1.4387
4,166,4,2,0,1,2,5,2,0,1,0.9986,1,2,2,0.8544
4,167,4,2,1,2,1,6,2,0,2,0.7583,2,1,1,1.2541
4,168,4,2,1,1,2,5,1,0,1,0.8742,1,1,2,0.858
4,169,4,2,0,2,2,5,2,1,2,0.7105,1,2,2,1.0782
4,170,4,2,1,1,2,4,1,0,1,1.1948,1,2,2,0.7946
4,171,4,2,1,1,1,1,2,1,1,0.6816,2,2,1,1.7533
4,172,4,2,1,1,1,1,1,1,1,0.88,1,1,1,0.8638
4,173,4,2,0,2,2,3,2,1,2,0.9362,1,2,1,1.048
4,174,4,2,1,2,1,3,2,0,2,0.8519,2,1,2,0.8997
4,175,4,2,0,1,2,6,1,0,1,0.9846,2,2,2,2.2483
4,176,4,2,1,1,2,6,1,0,1,1.1361,1,2,2,1.3759
4,177,4,2,0,1,1,5,1,1,1,0.7503,2,1,1,1.8221
4,178,4,2,1,2,1,1,1,0,2,1.2902,1,1,1,1.1459
4,179,4,2,1,2,2,1,1,1,2,0.936,1,1,1,1.1757
4,180,4,2,1,2,1,5,1,0,2,0.9591,1,2,2,0.8149
4,181,4,2,1,1,1,4,2,1,1,1.2022,2,1,1,1.1219
4,182,4,2,1,1,2,1,2,0,1,0.9524,2,1,1,1.0002
4,183,4,2,1,2,2,6,1,1,2,0.8152,1,2,2,0.9909
4,184,4,2,1,1,2,6,2,0,1,1.1899,2,2,1,1.5577
4,185,4,2,0,1,2,4,2,0,1,0.9837,1,1,1,1.0315
4,186,4,2,1,1,1,4,1,1,1,0.8869,1,1,1,0.9347
4,187,4,2,1,1,1,3,1,1,1,0.8725,1,1,1,0.7283
4,188,4,2,0,2,1,5,1,0,2,0.8138,2,1,1,0.9256
4,189,4,2,1,2,2,5,1,1,2,0.6192,1,2,2,0.667
4,190,4,2,0,1,1,3,1,1,1,0.8114,2,1,1,0.9232
4,191,4,2,1,2,1,3,1,0,2,0.7447,1,1,2,0.7925
4,192,4,2,1,2,2,3,1,1,2,0.7273,1,2,2,0.9031
4,193,5,1,0,2,2,1,1,1,2,0.7819,2,1,1,0.7656
4,194,5,1,1,1,1,5,2,1,1,0.8682,2,2,2,0.468
4,195,5,1,0,1,1,6,1,1,1,0.8359,2,2,2,0.6277
4,196,5,1,0,1,1,1,1,1,1,0.8074,2,1,1,0.6632
4,197,5,1,1,1,1,1,2,1,1,1.1916,2,2,2,0.7914
4,198,5,1,1,1,2,2,2,0,1,1.2662,2,1,1,0.802
4,199,5,1,0,2,2,3,2,1,2,0.7529,1,2,2,0.6087
4,200,5,1,0,2,2,5,2,1,2,0.8238,1,2,2,0.6795
4,201,5,1,1,1,1,2,2,1,1,1.3999,2,1,1,0.8077
4,202,5,1,0,2,1,1,2,0,2,1.2707,1,1,2,0.7425
4,203,5,1,0,2,2,2,2,1,2,1.3003,1,2,2,0.7081
4,204,5,1,1,2,2,6,1,1,2,0.8812,1,1,1,0.673
4,205,5,1,1,2,2,4,2,1,2,1.0616,2,2,2,0.6614
4,206,5,1,1,1,2,5,1,0,1,0.9338,1,2,2,0.8536
4,207,5,1,0,1,2,5,2,0,1,0.8215,1,2,2,0.6773
4,208,5,1,0,1,1,1,2,1,1,0.8269,1,2,2,0.6187
4,209,5,1,0,1,2,1,2,0,1,0.9904,1,2,2,0.4622
4,210,5,1,1,2,1,6,1,0,2,1.0391,1,1,1,1.1509
4,211,5,1,0,2,1,4,1,0,2,0.7724,2,1,1,0.7562
4,212,5,1,0,1,1,3,1,1,1,0.8823,2,1,1,1.058
4,213,5,1,0,1,1,4,2,1,1,1.0062,1,1,2,0.9259
4,214,5,1,1,2,1,1,2,0,2,0.7953,2,2,2,0.5231
4,215,5,1,0,2,2,4,2,1,2,0.7447,1,1,1,0.7925
4,216,5,1,0,2,1,1,1,0,2,0.8362,2,1,1,0.82
4,217,5,1,0,1,1,6,2,1,1,0.8754,1,2,2,0.4752
4,218,5,1,1,2,2,5,1,1,2,0.7439,1,1,2,0.6636
4,219,5,1,1,2,2,1,1,1,2,0.8323,1,1,1,0.8801
4,220,5,1,0,1,1,2,2,1,1,0.8936,1,2,2,0.6855
4,221,5,1,0,2,1,6,2,0,2,0.7423,1,1,1,1.4301
4,222,5,1,1,2,1,4,2,0,2,0.8215,2,2,2,1.2533
4,223,5,1,1,1,2,1,2,0,1,1.1411,2,1,1,0.8689
4,224,5,1,1,1,1,4,1,1,1,1.0171,1,1,1,0.9369
4,225,5,1,0,1,2,5,1,0,1,1.2704,2,1,1,0.9982
4,226,5,1,1,2,1,3,1,0,2,0.9529,1,1,1,1.0007
4,227,5,1,0,2,1,5,1,0,2,0.868,2,1,1,0.6597
4,228,5,1,0,2,1,4,2,0,2,0.6762,1,2,2,0.404
4,229,5,1,0,1,2,6,2,0,1,1.0514,1,2,2,1.0352
4,230,5,1,0,1,2,2,2,0,1,1.0069,1,2,2,0.4786
4,231,5,1,0,2,2,1,2,1,2,0.8753,1,1,1,0.6031
4,232,5,1,1,2,1,1,1,0,2,0.8063,1,1,1,0.7262
4,233,5,1,0,1,2,3,2,0,1,1.0258,1,2,2,0.6896
4,234,5,1,1,1,2,1,1,0,1,0.7465,1,1,1,1.0503
4,235,5,1,0,2,1,3,1,0,2,1.0742,2,2,2,1.122
4,236,5,1,1,1,1,6,1,1,1,0.8833,1,2,2,0.675
4,237,5,1,1,2,2,5,2,1,2,0.8835,2,1,1,0.8032
4,238,5,1,1,1,1,1,1,1,1,0.8822,1,2,2,0.738
4,239,5,1,0,1,2,2,1,0,1,1.4636,2,2,2,0.9994
4,240,5,1,0,1,2,4,1,0,1,0.8548,2,2,2,1.0946
4,241,6,2,0,1,1,6,2,1,1,1.0323,1,1,1,1.016
4,242,6,2,1,2,1,2,1,0,2,0.8935,1,1,1,0.7494
4,243,6,2,1,1,1,1,2,1,1,0.9916,2,1,1,1.7434
4,244,6,2,1,1,2,4,1,0,1,0.8392,1,2,2,0.887
4,245,6,2,0,1,2,2,1,0,1,0.8079,2,2,2,0.7277
4,246,6,2,1,1,1,4,1,1,1,0.825,1,1,1,0.8088
4,247,6,2,0,1,1,4,2,1,1,0.7598,1,2,2,0.8716
4,248,6,2,1,2,2,4,1,1,2,0.8159,1,1,1,0.7357
4,249,6,2,0,1,2,2,2,0,1,0.9494,1,1,2,0.8691
4,250,6,2,1,2,1,5,1,0,2,0.6693,1,1,1,1.1651
4,251,6,2,0,2,2,6,2,1,2,0.8153,1,2,1,1.3111
4,252,6,2,1,2,2,4,2,1,2,0.7164,2,2,1,1.7241
4,253,6,2,0,2,1,6,1,0,2,1.1341,2,2,2,1.1819
4,254,6,2,0,2,2,2,2,1,2,0.7969,1,2,2,1.3566
4,255,6,2,1,2,1,6,1,0,2,0.7311,1,2,1,1.4189
4,256,6,2,1,1,1,3,2,1,1,1.0265,2,2,2,0.8823
4,257,6,2,0,1,2,6,2,0,1,0.9952,1,1,2,1.0429
4,258,6,2,1,2,2,2,1,1,2,1.1264,1,1,1,1.7502
4,259,6,2,0,2,2,6,1,1,2,0.6959,2,1,1,0.8077
4,260,6,2,0,1,1,3,2,1,1,0.8226,1,1,1,1.2544
4,261,6,2,0,1,1,6,1,1,1,0.8223,2,2,2,0.9341
4,262,6,2,1,1,2,1,1,0,1,0.8836,1,2,2,0.8034
4,263,6,2,1,1,1,2,2,1,1,0.7426,2,1,1,1.1744
4,264,6,2,1,1,1,4,2,1,1,0.7371,2,2,1,1.4889
4,265,6,2,0,2,1,1,1,0,2,1.0664,2,2,1,1.1142
4,266,6,2,1,2,1,5,2,0,2,1.0683,2,1,1,1.18
4,267,6,2,1,2,2,1,1,1,2,0.731,1,2,2,0.6507
4,268,6,2,1,1,1,6,2,1,1,1.0446,2,1,1,0.7724
4,269,6,2,1,2,2,6,2,1,2,0.7469,2,1,2,0.7307
4,270,6,2,0,1,1,3,1,1,1,0.9803,2,2,2,1.412
4,271,6,2,1,2,1,6,2,0,2,1.0712,2,2,2,0.863
4,272,6,2,0,1,2,5,2,0,1,0.8831,1,2,2,0.9949
4,273,6,2,0,1,2,4,1,0,1,0.9497,2,2,2,0.8694
4,274,6,2,0,2,2,1,1,1,2,0.8021,2,2,1,1.0419
4,275,6,2,1,2,1,2,2,0,2,0.7936,2,2,1,0.9053
4,276,6,2,0,1,1,1,1,1,1,0.8321,2,2,1,1.0079
4,277,6,2,1,2,2,3,2,1,2,0.7831,2,1,1,0.9588
4,278,6,2,1,1,2,5,2,0,1,0.8091,2,1,1,0.9849
4,279,6,2,0,2,1,3,2,0,2,0.9316,1,2,2,0.8514
4,280,6,2,0,2,1,4,2,0,2,0.7252,1,1,1,1.093
4,281,6,2,0,2,2,4,2,1,2,0.7263,1,1,1,1.2221
4,282,6,2,0,1,1,4,1,1,1,0.918,2,1,2,2.1817
4,283,6,2,0,2,1,3,1,0,2,0.7281,2,1,1,1.4159
4,284,6,2,1,2,1,4,2,0,2,0.819,2,2,2,0.9308
4,285,6,2,0,2,2,5,2,1,2,0.6244,1,1,1,0.8642
4,286,6,2,0,1,1,2,2,1,1,0.8203,1,1,1,1.3801
4,287,6,2,0,2,2,1,2,1,2,0.6788,1,1,1,0.7906
4,288,6,2,1,1,2,2,2,0,1,1.1425,2,2,2,0.8063
4,289,7,2,1,2,2,3,1,1,2,0.8732,1,1,1,0.857
4,290,7,2,1,1,2,4,2,0,1,0.9148,2,2,2,1.0265
4,291,7,2,0,1,2,1,1,0,1,0.7422,2,2,2,0.662
4,292,7,2,1,1,2,2,1,0,1,0.8873,1,1,1,0.7431
4,293,7,2,1,1,2,3,1,0,1,0.8052,1,2,2,0.8529
4,294,7,2,1,2,2,6,1,1,2,0.7098,1,2,2,0.9496
4,295,7,2,1,1,1,5,1,1,1,0.8116,1,1,1,0.7954
4,296,7,2,0,1,2,4,2,0,1,0.8221,1,2,2,0.8699
4,297,7,2,0,2,1,5,1,0,2,0.8783,2,1,2,0.9261
4,298,7,2,0,1,2,3,1,0,1,1.1155,2,2,2,0.6513
4,299,7,2,1,2,1,1,2,0,2,0.8714,2,1,1,1.2392
4,300,7,2,1,2,1,1,1,0,2,0.8711,1,2,2,0.8549
4,301,7,2,1,2,2,5,2,1,2,0.6477,2,1,1,0.8875
4,302,7,2,1,1,1,5,2,1,1,0.7444,2,1,1,0.6641
4,303,7,2,1,1,2,6,2,0,1,1.3493,2,1,1,0.8851
4,304,7,2,0,2,1,5,2,0,2,0.7419,1,2,1,0.9817
4,305,7,2,1,1,2,3,2,0,1,0.8091,2,2,2,0.921
4,306,7,2,0,2,1,1,2,0,2,0.7543,1,2,1,1.186
4,307,7,2,0,1,1,5,2,1,1,0.7965,1,1,1,1.1003
4,308,7,2,1,1,2,6,1,0,1,0.8212,1,2,2,0.9329
4,309,7,2,0,1,1,5,1,1,1,0.8825,2,2,2,0.5463
4,310,7,2,0,2,2,5,1,1,2,0.7561,2,2,1,1.3799
4,311,7,2,1,2,2,1,2,1,2,0.7904,2,1,1,2.0542
4,312,7,2,1,2,1,4,1,0,2,0.9029,1,1,1,0.7587
4,313,7,2,0,1,2,5,1,0,1,0.809,2,2,1,0.7927
4,314,7,2,0,2,2,4,1,1,2,0.8437,2,2,2,1.6595
4,315,7,2,1,2,1,3,1,0,2,0.7398,1,1,1,1.1716
4,316,7,2,1,1,1,6,1,1,1,0.9028,1,1,2,1.5906
4,317,7,2,0,2,2,2,1,1,2,0.8114,2,2,1,0.7951
4,318,7,2,0,1,2,1,2,0,1,0.6946,1,2,1,1.1264
4,319,7,2,0,2,2,3,2,1,2,0.7957,1,1,1,0.9715
4,320,7,2,1,1,1,1,1,1,1,0.6298,1,1,1,0.8056
4,321,7,2,1,2,2,5,1,1,2,0.6925,1,2,1,1.1883
4,322,7,2,1,1,2,5,1,0,1,0.6591,1,1,1,0.7708
4,323,7,2,0,2,1,2,2,0,2,0.8211,1,2,1,1.0609
4,324,7,2,0,1,2,3,2,0,1,1.1091,1,1,1,0.7729
4,325,7,2,1,2,1,3,2,0,2,0.6834,2,1,1,0.6672
4,326,7,2,1,1,2,1,2,0,1,1.1316,2,2,2,1.1793
4,327,7,2,1,1,1,2,1,1,1,0.6141,1,2,2,0.5338
4,328,7,2,0,2,1,2,1,0,2,0.8246,2,2,2,0.8084
4,329,7,2,0,2,2,3,1,1,2,0.7359,2,1,1,0.7836
4,330,7,2,0,1,1,2,1,1,1,0.7869,2,1,1,0.8346
4,331,7,2,0,1,1,1,2,1,1,0.7503,1,1,1,0.7341
4,332,7,2,1,1,1,3,1,1,1,0.8197,1,2,2,0.9955
4,333,7,2,1,2,2,2,2,1,2,0.6302,2,1,1,0.998
4,334,7,2,0,2,1,4,1,0,2,0.8247,2,1,1,0.6165
4,335,7,2,0,2,1,6,2,0,2,0.68,1,1,1,1.0478
4,336,7,2,0,1,2,6,1,0,1,0.8679,2,2,2,0.9157
4,337,8,1,1,1,1,3,2,1,1,0.8084,2,2,2,0.6642
4,338,8,1,1,1,2,5,2,0,1,1.2736,2,2,2,0.6174
4,339,8,1,0,2,2,6,2,1,2,0.8257,1,2,2,0.5535
4,340,8,1,1,1,1,2,1,1,1,0.873,1,1,1,1.1768
4,341,8,1,1,2,1,2,1,0,2,1.1235,1,2,2,0.5953
4,342,8,1,0,1,1,4,1,1,1,0.9148,2,2,2,1.0265
4,343,8,1,1,2,2,3,1,1,2,0.754,1,1,1,0.6098
4,344,8,1,0,2,2,3,1,1,2,0.6968,2,2,2,0.6805
4,345,8,1,1,2,2,4,1,1,2,0.633,1,1,1,0.6807
4,346,8,1,0,2,2,2,1,1,2,0.6972,2,2,2,0.4889
4,347,8,1,1,2,1,5,1,0,2,0.7952,1,2,2,0.523
4,348,8,1,0,1,2,4,2,0,1,1.1573,1,1,1,1.0131
4,349,8,1,0,1,1,5,2,1,1,0.8685,1,1,2,0.5963
4,350,8,1,1,2,1,6,2,0,2,1.0563,2,2,2,0.6561
4,351,8,1,1,1,2,6,2,0,1,0.8123,2,1,1,0.732
4,352,8,1,1,1,1,5,1,1,1,0.8868,1,2,1,1.2546
4,353,8,1,0,2,2,4,1,1,2,0.7069,2,2,2,0.8187
4,354,8,1,1,1,1,3,1,1,1,0.9029,1,1,1,0.8227
4,355,8,1,1,2,2,2,2,1,2,1.0061,2,2,2,0.5419
4,356,8,1,0,1,1,5,1,1,1,0.8157,2,1,1,0.8635
4,357,8,1,1,2,2,1,2,1,2,0.8197,2,1,1,0.8674
4,358,8,1,1,1,2,4,2,0,1,1.0796,2,1,1,0.6794
4,359,8,1,0,2,1,5,2,0,2,0.8238,1,2,2,0.6796
4,360,8,1,1,1,2,3,2,0,1,0.9572,2,2,2,0.877
4,361,8,1,1,2,1,2,2,0,2,0.9376,2,2,2,1.0494
4,362,8,1,0,2,1,2,1,0,2,0.7297,2,1,1,0.7135
4,363,8,1,1,2,1,5,2,0,2,0.7351,2,2,2,0.5909
4,364,8,1,1,2,1,3,2,0,2,0.8986,2,1,1,0.7544
4,365,8,1,1,2,2,2,1,1,2,0.7407,1,1,1,1.7484
4,366,8,1,0,2,2,6,1,1,2,0.5949,2,2,2,0.4507
4,367,8,1,0,1,2,1,1,0,1,0.8826,2,1,1,1.1224
4,368,8,1,1,1,2,3,1,0,1,0.8197,1,2,1,0.9955
4,369,8,1,1,1,2,2,1,0,1,0.8583,1,2,2,0.522
4,370,8,1,1,1,2,6,1,0,1,0.8716,1,1,1,0.7914
4,371,8,1,1,2,2,6,2,1,2,0.8181,2,1,1,0.6739
4,372,8,1,1,1,2,4,1,0,1,1.0795,1,1,1,0.8073
4,373,8,1,0,2,1,6,1,0,2,0.9268,2,1,1,0.5266
4,374,8,1,1,1,1,4,2,1,1,1.0042,2,2,2,0.8599
4,375,8,1,1,2,2,3,2,1,2,0.7403,2,1,1,0.6601
4,376,8,1,1,1,1,6,2,1,1,0.7575,2,2,2,0.7412
4,377,8,1,0,1,1,3,2,1,1,0.7394,1,2,2,0.6591
4,378,8,1,0,1,2,6,1,0,1,0.8439,2,2,2,0.6357
4,379,8,1,0,2,1,2,2,0,2,1.3915,1,1,2,0.5432
4,380,8,1,0,1,1,2,1,1,1,1.1091,2,1,1,0.5169
4,381,8,1,1,2,1,4,1,0,2,0.8143,1,1,1,0.35
4,382,8,1,0,1,2,3,1,0,1,0.8408,2,2,2,0.5686
4,383,8,1,0,2,1,3,2,0,2,0.8829,1,1,1,0.7387
4,384,8,1,0,2,2,5,1,1,2,0.6845,2,1,1,0.5403
5,1,1,1,1,1,2,5,2,0,2,0.7021,2,1,1,0.8524
5,2,1,1,1,2,2,6,2,1,1,0.8843,2,1,2,1.2304
5,3,1,1,0,2,2,1,1,1,2,1.1138,2,1,1,0.7136
5,4,1,1,1,1,1,5,1,1,2,0.7587,1,1,1,0.7861
5,5,1,1,1,2,1,3,2,0,2,1.0807,2,2,2,0.9364
5,6,1,1,0,2,1,2,2,0,2,0.9265,1,2,2,0.6543
5,7,1,1,0,2,1,2,1,0,2,1.0665,2,2,2,0.9222
5,8,1,1,1,2,1,1,1,0,2,1.1396,1,2,2,0.6113
5,9,1,1,1,1,2,6,1,0,1,0.8668,1,1,1,0.7866
5,10,1,1,1,2,1,5,2,0,1,0.8134,2,2,2,0.846
5,11,1,1,0,1,2,2,2,0,1,1.134,1,2,2,0.6057
5,12,1,1,0,1,2,5,1,0,1,1.0009,2,1,1,0.7927
5,13,1,1,0,2,1,1,2,0,2,0.7555,1,2,2,0.6113
5,14,1,1,0,1,2,3,1,0,1,0.7505,2,2,2,0.5423
5,15,1,1,1,2,2,1,2,1,2,0.6242,2,1,1,0.8639
5,16,1,1,0,1,1,2,1,1,1,0.6281,2,2,2,0.6118
5,17,1,1,0,1,1,1,1,1,1,0.9431,2,2,2,0.6069
5,18,1,1,1,1,1,4,1,1,1,0.5659,1,2,2,0.6137
5,19,1,1,0,1,2,2,1,0,1,0.6249,2,1,1,0.6087
5,20,1,1,1,1,2,2,2,0,1,0.6317,2,1,1,0.6155
5,21,1,1,0,2,1,3,2,0,2,0.5627,1,1,1,0.5466
5,22,1,1,0,2,1,5,2,0,2,0.9483,1,2,2,0.5481
5,23,1,1,1,2,2,6,1,1,2,0.758,1,1,1,0.5498
5,24,1,1,0,2,2,6,1,1,2,0.6198,2,2,2,0.6036
5,25,1,1,0,2,2,4,2,1,1,0.6789,1,2,2,0.5327
5,26,1,1,1,1,1,1,2,1,1,0.9463,2,1,2,0.6101
5,27,1,1,0,1,2,1,2,0,1,0.7853,1,2,2,0.8971
5,28,1,1,1,2,2,5,1,1,2,0.5789,1,1,1,0.5627
5,29,1,1,1,1,1,5,2,1,1,0.557,2,1,1,0.6048
5,30,1,1,1,1,2,5,1,0,1,0.744,1,1,1,0.4078
5,31,1,1,1,2,1,2,1,0,2,0.6831,1,2,2,0.6029
5,32,1,1,0,2,1,4,2,0,2,0.8701,1,1,1,0.4699
5,33,1,1,1,1,2,1,2,0,1,1.1344,2,2,2,0.6701
5,34,1,1,1,1,1,4,2,1,1,0.7505,2,1,1,0.6703
5,35,1,1,0,2,1,5,1,0,2,0.7507,2,2,2,0.6065
5,36,1,1,0,1,1,5,1,1,1,0.7457,2,2,2,0.7935
5,37,1,1,1,1,1,6,2,1,1,0.9012,2,2,2,0.629
5,38,1,1,1,2,1,6,1,0,2,0.7447,1,2,2,0.6005
5,39,1,1,0,2,1,3,1,0,2,0.8795,2,1,1,0.9273
5,40,1,1,1,2,2,4,2,1,2,0.8246,2,2,2,0.6164
5,41,1,1,1,2,2,4,1,1,2,0.7557,1,2,2,0.6114
5,42,1,1,1,1,2,3,1,0,1,1.0589,1,1,1,0.5307
5,43,1,1,1,2,2,2,1,1,2,0.9966,1,1,1,0.5323
5,44,1,1,0,2,2,6,2,1,2,0.946,1,1,1,0.5457
5,45,1,1,1,1,1,6,1,1,1,1.2676,1,1,1,0.7393
5,46,1,1,0,1,1,4,1,1,1,0.5689,2,2,2,0.4887
5,47,1,1,1,1,2,2,1,0,1,0.8736,1,1,2,0.8574
5,48,1,1,0,1,2,4,2,0,1,0.762,1,1,1,0.4898
5,49,2,2,0,1,1,4,2,1,1,0.7156,1,1,1,0.6353
5,50,2,2,0,2,2,6,1,1,2,0.8033,2,2,2,1.0431
5,51,2,2,1,1,2,5,2,0,1,0.7587,2,2,2,0.8705
5,52,2,2,1,1,1,3,1,1,1,0.6229,1,1,1,0.5427
5,53,2,2,0,2,1,5,1,0,2,0.8165,2,2,2,0.6083
5,54,2,2,1,1,2,1,1,0,1,0.6953,1,1,1,0.7431
5,55,2,2,0,2,2,1,1,1,2,0.7412,2,1,2,0.5329
5,56,2,2,1,2,2,5,1,1,2,0.8428,1,2,2,0.6346
5,57,2,2,0,1,1,1,1,1,1,0.6393,2,2,2,0.751
5,58,2,2,1,2,2,4,2,1,1,1.1331,2,1,1,0.976
5,59,2,2,1,2,2,2,2,1,2,0.7387,2,2,2,0.7865
5,60,2,2,1,2,1,5,2,0,2,0.761,2,2,2,0.6168
5,61,2,2,1,1,1,6,1,1,1,0.7965,1,2,2,0.6523
5,62,2,2,0,1,2,6,2,0,1,0.6047,1,1,1,0.5245
5,63,2,2,0,1,1,6,2,1,1,0.4901,1,2,2,0.858
5,64,2,2,0,2,1,2,2,0,2,0.8663,1,1,1,0.5301
5,65,2,2,0,1,2,4,2,0,1,0.9437,1,2,2,0.7355
5,66,2,2,0,1,1,4,1,1,1,0.5651,2,2,1,0.6128
5,67,2,2,0,1,2,3,1,0,1,0.7241,2,2,2,1.412
5,68,2,2,0,1,2,1,1,0,1,0.687,2,2,2,0.8628
5,69,2,2,1,2,1,4,2,0,2,0.7432,2,1,2,0.855
5,70,2,2,0,1,1,2,1,1,1,0.6552,2,1,1,0.5109
5,71,2,2,1,1,2,1,2,0,1,0.901,2,1,1,0.6288
5,72,2,2,1,1,1,4,1,1,1,0.5003,1,1,2,0.6761
5,73,2,2,1,1,1,3,2,1,1,0.5365,2,1,1,0.6483
5,74,2,2,1,2,1,3,2,0,2,0.8684,2,2,1,0.6602
5,75,2,2,0,2,2,1,2,1,2,0.7767,1,2,2,0.7605
5,76,2,2,0,2,2,2,2,1,2,0.735,1,1,1,0.9108
5,77,2,2,1,2,2,1,2,1,2,0.6683,2,2,2,0.7161
5,78,2,2,0,1,2,5,1,0,1,0.8304,2,1,1,0.4942
5,79,2,2,1,2,2,1,1,1,2,0.8151,1,2,1,0.9909
5,80,2,2,1,1,2,3,2,0,1,0.7896,2,2,1,0.8374
5,81,2,2,0,1,2,3,2,0,2,0.8413,1,2,2,0.5944
5,82,2,2,0,1,1,1,2,1,1,0.5652,1,2,2,0.805
5,83,2,2,0,2,2,3,1,1,2,0.7729,2,1,2,1.0767
5,84,2,2,0,2,2,6,2,1,2,0.7173,1,1,1,0.7011
5,85,2,2,1,1,2,4,1,0,1,0.9551,1,1,1,0.7469
5,86,2,2,1,1,1,1,2,1,1,0.6288,2,1,1,0.4845
5,87,2,2,1,2,2,3,2,1,2,0.6134,2,2,1,0.6612
5,88,2,2,1,1,2,6,1,0,1,0.8534,1,1,1,0.7732
5,89,2,2,1,2,2,6,1,1,2,0.6955,1,1,1,0.7433
5,90,2,2,1,2,1,6,2,0,2,0.7296,2,1,1,0.7133
5,91,2,2,0,1,1,5,1,1,1,0.7114,2,1,1,0.6312
5,92,2,2,1,1,2,2,2,0,1,1.0029,2,2,2,0.6027
5,93,2,2,1,2,2,3,1,1,2,1.3062,1,1,1,0.97
5,94,2,2,0,1,1,3,2,1,1,0.5642,1,2,2,0.612
5,95,2,2,1,1,2,4,2,0,1,0.8153,2,1,1,0.927
5,96,2,2,1,1,2,5,1,0,1,0.8243,1,2,2,1.1282
5,97,3,2,0,2,1,1,1,0,2,0.8965,2,2,2,0.5603
5,98,3,2,1,1,1,6,2,1,1,0.6708,2,1,2,0.8466
5,99,3,2,0,2,2,4,2,1,2,0.8388,1,2,2,0.6306
5,100,3,2,0,2,1,2,1,0,2,0.9265,2,2,2,0.5903
5,101,3,2,0,2,1,5,2,0,2,1.4034,1,2,2,0.7472
5,102,3,2,0,1,1,6,1,1,1,0.757,2,1,1,0.9328
5,103,3,2,0,1,2,6,1,0,1,0.8184,2,1,2,0.9941
5,104,3,2,0,1,1,3,1,1,1,0.6009,2,1,1,0.5207
5,105,3,2,1,2,1,6,1,0,2,0.6143,1,1,2,1.3661
5,106,3,2,0,2,1,6,2,0,1,1.0325,1,1,1,0.9174
5,107,3,2,0,2,2,5,1,1,2,0.7912,2,2,2,0.711
5,108,3,2,0,1,2,1,2,0,1,0.79,1,2,2,0.7097
5,109,3,2,1,2,2,4,1,1,2,0.8711,1,2,1,0.5989
5,110,3,2,0,2,2,4,1,1,2,0.7859,2,1,1,0.7057
5,111,3,2,0,2,1,3,2,0,1,0.8788,1,1,1,0.9166
5,112,3,2,1,2,1,2,1,0,2,1.1339,1,2,2,0.6697
5,113,3,2,0,2,2,3,2,1,2,0.8024,1,1,1,0.8501
5,114,3,2,1,2,1,2,2,0,2,0.8586,2,1,1,0.9063
5,115,3,2,0,1,2,5,2,0,1,0.8036,1,2,2,0.5954
5,116,3,2,1,2,1,5,1,0,2,0.6706,1,1,1,0.7184
5,117,3,2,0,1,2,4,1,0,1,1.1881,2,2,1,0.8518
5,118,3,2,0,2,2,2,1,1,2,0.652,2,2,2,0.5718
5,119,3,2,0,1,2,2,2,0,1,0.9383,1,1,1,0.9221
5,120,3,2,0,2,1,4,2,0,2,0.6679,1,2,2,0.9077
5,121,3,2,1,1,1,4,2,1,1,0.933,2,1,1,0.7248
5,122,3,2,0,2,1,6,1,0,2,0.7581,2,2,2,0.7419
5,123,3,2,0,1,1,5,2,1,1,0.8797,1,2,2,0.7995
5,124,3,2,1,2,1,1,1,0,2,0.8667,1,2,2,0.5945
5,125,3,2,1,1,2,2,1,0,1,1.0133,1,1,1,0.8691
5,126,3,2,1,1,1,2,1,1,1,0.6855,1,2,2,0.6053
5,127,3,2,1,1,1,5,1,1,1,0.6334,1,1,1,0.6812
5,128,3,2,1,1,1,1,1,1,1,0.6101,1,2,2,0.658
5,129,3,2,0,2,1,1,2,0,2,0.9068,1,2,1,1.4026
5,130,3,2,1,2,1,4,1,0,2,0.8676,1,1,2,0.7234
5,131,3,2,0,1,2,2,1,0,1,0.9612,2,1,1,0.625
5,132,3,2,1,2,2,5,2,1,2,0.8047,2,2,2,0.9805
5,133,3,2,0,2,1,4,1,0,2,0.7719,2,2,2,1.0117
5,134,3,2,1,1,2,6,2,0,1,0.8149,2,2,2,0.5427
5,135,3,2,1,1,1,2,2,1,1,0.7525,2,1,1,0.8003
5,136,3,2,1,2,1,1,2,0,2,0.8793,2,2,2,0.8631
5,137,3,2,1,1,2,3,1,0,1,0.8192,1,1,1,1.123
5,138,3,2,0,1,1,2,2,1,1,0.6805,1,2,2,0.7284
5,139,3,2,0,2,2,5,2,1,2,0.8021,1,1,1,0.722
5,140,3,2,1,2,2,2,1,1,2,0.7958,1,1,1,0.7155
5,141,3,2,1,2,2,6,2,1,2,0.7018,2,2,1,1.1336
5,142,3,2,1,1,1,5,2,1,2,0.6683,2,1,1,0.9819
5,143,3,2,1,2,1,3,1,0,2,0.9367,1,1,1,1.1124
5,144,3,2,0,2,1,3,1,0,2,0.8215,2,1,1,0.6773
5,145,4,1,0,2,2,4,1,1,2,0.6526,2,1,1,0.7644
5,146,4,1,1,2,1,3,1,0,2,0.8147,1,1,1,0.5425
5,147,4,1,0,1,2,1,1,0,1,0.8803,2,2,2,0.4161
5,148,4,1,1,2,1,1,2,0,2,1.0114,2,2,2,0.7391
5,149,4,1,0,1,2,6,1,0,1,0.7489,2,2,2,0.4127
5,150,4,1,1,1,1,3,1,1,1,0.5012,1,2,2,0.485
5,151,4,1,1,2,1,6,2,0,2,0.5499,2,1,1,0.5976
5,152,4,1,1,1,2,4,1,0,1,0.6206,1,2,2,0.4124
5,153,4,1,1,2,2,3,1,1,2,1.06,1,2,2,0.4037
5,154,4,1,0,1,1,1,2,1,1,0.7077,1,1,1,0.3715
5,155,4,1,0,1,2,6,2,0,1,0.6298,1,1,1,0.4216
5,156,4,1,1,2,2,2,2,1,2,0.6969,2,2,2,0.4246
5,157,4,1,1,1,1,2,1,1,1,0.7521,1,2,2,0.4159
5,158,4,1,1,2,2,3,2,1,2,0.8714,2,2,2,0.5992
5,159,4,1,1,2,1,2,2,0,2,0.7502,2,2,2,0.542
5,160,4,1,0,1,2,4,1,0,1,0.8798,2,1,1,0.4796
5,161,4,1,1,1,2,4,2,0,1,0.8763,2,2,2,0.5401
5,162,4,1,0,1,1,3,1,1,1,0.5984,2,1,1,0.5182
5,163,4,1,1,2,2,1,1,1,2,0.7045,1,1,1,0.6882
5,164,4,1,1,2,2,5,2,1,2,1.1291,2,2,2,0.5369
5,165,4,1,0,1,1,5,2,1,1,0.863,1,1,1,0.9108
5,166,4,1,1,1,2,3,2,0,1,0.6161,2,2,2,0.5359
5,167,4,1,0,2,2,1,2,1,2,0.6987,1,1,1,0.4264
5,168,4,1,0,2,2,2,1,1,2,0.9459,2,2,2,0.4817
5,169,4,1,0,1,1,6,2,1,1,0.6864,1,2,2,0.6702
5,170,4,1,0,2,2,3,2,1,2,0.8028,1,2,2,0.5306
5,171,4,1,0,2,1,1,1,0,2,0.9442,2,1,2,0.672
5,172,4,1,1,2,1,5,1,0,2,0.9046,1,1,1,0.5684
5,173,4,1,0,2,1,6,1,0,2,0.807,2,2,2,0.5988
5,174,4,1,0,2,2,2,2,1,2,0.738,1,2,1,0.7218
5,175,4,1,0,1,1,4,2,1,1,0.6683,1,2,2,0.5241
5,176,4,1,1,2,1,4,2,0,2,0.8097,2,1,1,0.7295
5,177,4,1,0,2,1,4,1,0,2,0.9313,2,1,1,0.7871
5,178,4,1,1,1,1,3,2,1,1,0.8138,2,1,1,0.5416
5,179,4,1,1,1,2,6,2,0,1,0.6875,2,1,1,0.5433
5,180,4,1,0,2,1,6,2,0,2,0.8811,1,1,1,0.6089
5,181,4,1,1,1,1,2,2,1,1,0.8879,2,2,2,0.5517
5,182,4,1,0,1,1,2,2,1,1,0.6217,1,1,1,0.5416
5,183,4,1,0,2,2,5,1,1,2,0.8036,2,1,1,0.6594
5,184,4,1,0,1,1,3,2,1,1,0.792,1,1,1,0.4558
5,185,4,1,0,2,2,5,2,1,2,1.068,1,1,1,0.7318
5,186,4,1,0,1,2,3,2,0,1,0.5496,1,1,1,0.4054
5,187,4,1,0,2,2,3,1,1,2,0.6049,2,1,1,0.6527
5,188,4,1,1,1,2,1,1,0,1,0.9369,1,2,2,0.4086
5,189,4,1,1,1,1,1,1,1,1,0.6199,1,2,2,0.7317
5,190,4,1,0,1,2,5,2,0,1,0.6253,1,2,2,0.7371
5,191,4,1,1,2,1,4,1,0,2,0.8866,1,1,1,0.4864
5,192,4,1,0,1,1,6,1,1,1,0.9353,2,2,2,0.4711
5,193,5,2,0,1,1,1,1,1,1,0.5781,2,1,1,0.4979
5,194,5,2,1,1,2,2,1,0,1,0.6268,1,1,1,0.6106
5,195,5,2,1,2,2,1,2,1,2,0.6623,2,1,1,0.5821
5,196,5,2,0,2,2,2,2,1,2,0.7971,1,2,1,0.5889
5,197,5,2,0,1,1,4,2,1,1,0.6648,1,1,1,0.7766
5,198,5,2,1,1,2,3,2,0,1,0.8034,2,1,2,0.7871
5,199,5,2,1,2,1,5,1,0,2,0.9662,1,1,1,0.6299
5,200,5,2,0,2,1,1,1,0,2,1.0017,2,1,1,0.9215
5,201,5,2,1,2,2,2,2,1,2,0.6437,2,1,1,0.6275
5,202,5,2,1,1,1,6,2,1,2,1.715,2,2,2,0.9174
5,203,5,2,1,1,1,1,1,1,1,0.8787,1,2,2,0.7985
5,204,5,2,0,2,2,6,2,1,2,0.6972,1,1,1,0.873
5,205,5,2,0,1,1,5,1,1,1,0.6777,2,1,1,0.7254
5,206,5,2,0,1,2,1,2,0,1,0.875,1,1,1,0.4748
5,207,5,2,1,1,1,5,2,1,1,0.4404,2,1,1,0.5522
5,208,5,2,1,2,1,4,2,0,2,0.587,2,1,1,0.5708
5,209,5,2,0,2,1,2,1,0,2,0.7453,2,2,2,0.7931
5,210,5,2,0,1,1,3,2,1,1,0.7441,1,2,2,0.7278
5,211,5,2,0,1,2,3,2,0,1,0.8774,1,1,1,0.6052
5,212,5,2,1,2,1,1,1,0,1,0.8842,1,1,1,0.5902
5,213,5,2,1,2,1,3,2,0,2,1.0377,2,1,1,0.5095
5,214,5,2,0,2,2,4,1,1,2,0.7547,2,2,2,0.7384
5,215,5,2,1,2,2,4,2,1,2,0.888,2,2,2,0.6158
5,216,5,2,0,2,2,3,2,1,2,0.627,1,2,1,0.9948
5,217,5,2,1,1,2,3,1,0,1,0.8576,1,1,1,0.5214
5,218,5,2,1,1,1,2,2,1,1,0.743,2,2,2,0.5988
5,219,5,2,0,2,1,6,1,0,2,0.7902,2,1,1,1.35
5,220,5,2,0,1,2,6,1,0,1,0.812,2,2,2,0.6038
5,221,5,2,0,1,2,2,1,0,1,0.7953,2,2,2,0.907
5,222,5,2,1,2,2,6,1,1,2,0.8971,1,1,1,0.5609
5,223,5,2,0,1,1,4,1,1,1,0.8229,2,1,1,0.5507
5,224,5,2,1,2,1,1,2,0,2,0.6966,2,2,2,1.0643
5,225,5,2,1,1,2,4,2,0,1,1.1927,2,2,1,1.2404
5,226,5,2,1,1,2,6,1,0,1,0.7282,1,2,2,0.6479
5,227,5,2,0,2,2,5,1,1,2,0.8799,2,2,1,0.6076
5,228,5,2,0,1,2,5,1,0,1,0.6549,2,2,2,0.7028
5,229,5,2,1,1,1,5,1,1,1,0.6956,1,1,1,0.8714
5,230,5,2,0,1,1,1,2,1,1,0.5598,1,2,1,0.6716
5,231,5,2,0,1,2,2,2,0,1,0.916,1,2,2,0.7718
5,232,5,2,0,1,1,3,1,1,1,0.6302,2,2,2,0.9338
5,233,5,2,1,1,1,6,1,1,1,0.7555,1,1,1,0.9952
5,234,5,2,1,2,2,3,2,1,2,0.8741,2,1,1,0.7939
5,235,5,2,0,2,1,4,2,0,1,0.8259,1,1,2,1.1027
5,236,5,2,0,2,2,6,1,1,2,0.6727,2,2,1,0.5285
5,237,5,2,1,2,2,2,1,1,2,0.8148,1,2,2,0.9906
5,238,5,2,1,2,2,4,1,1,2,0.7299,1,2,1,0.6496
5,239,5,2,1,2,1,3,1,0,2,0.8418,1,2,1,0.9536
5,240,5,2,1,1,2,5,2,0,1,1.1599,2,2,2,0.9516
5,241,6,1,0,1,2,3,2,0,1,0.7842,1,1,1,0.576
5,242,6,1,1,2,1,2,2,0,2,0.8786,2,1,1,0.7343
5,243,6,1,0,2,2,4,1,1,1,0.6919,2,2,2,0.662
5,244,6,1,1,2,1,3,2,0,2,1.0102,2,1,1,0.61
5,245,6,1,0,2,2,2,2,1,2,0.7492,1,1,1,0.797
5,246,6,1,0,2,2,1,1,1,2,0.94,2,1,1,0.7317
5,247,6,1,0,2,2,6,2,1,2,0.7063,1,1,1,0.498
5,248,6,1,1,2,1,5,2,0,2,0.8072,2,2,2,0.471
5,249,6,1,0,1,2,1,2,0,1,0.7919,1,2,2,0.5197
5,250,6,1,1,2,2,4,2,1,2,0.8053,2,1,1,0.725
5,251,6,1,0,1,2,3,1,0,1,1.3109,2,2,2,0.5267
5,252,6,1,1,2,1,4,2,0,1,1.2602,2,2,2,0.9098
5,253,6,1,0,1,2,4,2,0,1,0.8358,1,2,2,0.5636
5,254,6,1,1,2,2,6,2,1,2,0.8139,2,2,2,0.6697
5,255,6,1,1,1,2,4,2,0,1,0.8141,2,2,2,0.5419
5,256,6,1,0,2,2,3,1,1,2,0.6237,2,1,1,0.4795
5,257,6,1,0,1,2,5,2,0,1,1.3359,1,2,2,0.4878
5,258,6,1,0,1,2,2,2,0,1,0.7564,1,1,1,0.4202
5,259,6,1,1,1,2,3,1,0,1,0.7646,1,1,1,0.8124
5,260,6,1,0,1,2,6,2,0,1,0.6641,1,1,1,0.7118
5,261,6,1,0,1,1,6,2,1,1,0.6172,1,2,2,0.473
5,262,6,1,0,1,2,2,1,0,1,0.9977,2,1,1,0.5974
5,263,6,1,0,2,1,3,2,0,2,0.8765,1,2,2,0.6042
5,264,6,1,1,1,2,5,1,0,1,0.9355,1,2,2,0.6633
5,265,6,1,0,2,1,4,2,0,1,0.8834,1,1,1,0.7175
5,266,6,1,1,1,1,6,1,1,1,0.5588,1,1,1,0.5426
5,267,6,1,1,1,1,5,2,1,1,0.8805,2,1,1,0.5442
5,268,6,1,1,1,2,1,1,0,1,1.0101,1,2,2,0.4179
5,269,6,1,0,2,2,4,2,1,2,0.8851,1,2,2,0.6769
5,270,6,1,1,2,2,3,2,1,2,0.7456,2,1,1,0.7933
5,271,6,1,0,1,2,4,1,0,1,1.9486,2,2,2,1.1644
5,272,6,1,1,1,2,5,2,0,1,0.6748,2,2,2,0.5306
5,273,6,1,1,1,1,4,2,1,1,0.5484,2,1,1,0.4042
5,274,6,1,0,1,1,5,2,1,2,1.0635,1,2,2,0.593
5,275,6,1,1,1,1,3,2,1,1,0.5403,2,2,2,0.524
5,276,6,1,0,2,2,2,1,1,2,0.9899,2,1,1,0.5257
5,277,6,1,1,1,1,1,1,1,1,1.0202,1,2,2,0.428
5,278,6,1,1,1,2,6,2,0,1,0.8195,2,1,1,0.6113
5,279,6,1,0,2,1,6,2,0,2,0.6865,1,1,1,0.6063
5,280,6,1,1,1,1,2,1,1,1,1.0133,1,1,1,0.4851
5,281,6,1,0,2,1,5,2,0,2,1.254,1,1,1,0.5978
5,282,6,1,0,1,1,5,1,1,1,0.8886,2,2,2,0.5524
5,283,6,1,1,2,2,6,1,1,2,0.5989,1,2,2,1.2867
5,284,6,1,0,2,1,1,1,0,2,0.9237,2,1,1,0.6515
5,285,6,1,1,1,2,6,1,0,1,1.1446,1,2,2,0.6804
5,286,6,1,1,2,2,2,2,1,2,0.8131,2,2,2,0.9249
5,287,6,1,0,1,1,3,2,1,1,0.8104,1,2,1,0.7302
5,288,6,1,0,2,2,5,2,1,2,0.712,1,1,1,0.8878
5,289,7,1,1,1,1,4,1,1,1,0.6379,1,1,1,0.4297
5,290,7,1,0,1,1,4,1,1,1,0.5012,2,2,2,0.613
5,291,7,1,1,2,1,6,2,0,2,0.6883,2,2,2,0.544
5,292,7,1,1,2,1,2,1,0,2,0.8179,1,2,2,0.5457
5,293,7,1,1,2,2,4,1,1,2,0.6797,1,2,2,0.4715
5,294,7,1,0,1,1,2,1,1,1,0.6762,2,1,1,0.788
5,295,7,1,1,1,1,3,1,1,1,0.739,1,1,1,0.5307
5,296,7,1,1,2,1,3,1,0,2,0.973,1,1,1,0.5089
5,297,7,1,0,1,1,3,1,1,1,0.6142,2,2,2,0.47
5,298,7,1,1,1,1,6,2,1,1,0.6107,2,1,1,0.5304
5,299,7,1,1,2,1,4,1,0,2,0.8212,1,1,1,0.549
5,300,7,1,1,2,2,2,1,1,2,0.8751,1,1,1,0.6028
5,301,7,1,0,1,1,2,2,1,1,0.8348,1,2,2,0.4986
5,302,7,1,0,2,1,1,2,0,2,0.8195,1,2,2,0.6113
5,303,7,1,0,2,2,5,1,1,2,0.8785,2,1,1,0.6063
5,304,7,1,1,1,1,1,2,1,1,0.6933,2,2,2,0.4851
5,305,7,1,0,2,2,1,2,1,2,0.6898,1,2,2,0.5455
5,306,7,1,0,1,2,5,1,0,1,0.8194,2,1,1,0.6112
5,307,7,1,1,2,2,3,1,1,2,0.7909,1,2,2,0.4547
5,308,7,1,1,1,2,4,1,0,1,0.7991,1,1,1,0.4629
5,309,7,1,1,2,2,5,2,1,2,0.6793,2,2,2,0.4071
5,310,7,1,1,2,1,6,1,0,2,0.7346,1,2,2,0.4624
5,311,7,1,0,2,1,3,1,0,2,0.6317,2,1,1,0.5516
5,312,7,1,1,1,2,2,2,0,1,0.7378,2,1,1,0.5296
5,313,7,1,0,2,2,6,1,1,2,1.0242,2,2,2,0.4959
5,314,7,1,0,1,2,6,1,0,1,0.6248,2,2,2,0.5446
5,315,7,1,0,1,1,6,1,1,1,0.5625,2,2,2,0.4823
5,316,7,1,1,2,1,1,2,0,2,1.0709,2,1,1,0.4787
5,317,7,1,1,1,2,1,2,0,1,0.8114,2,2,2,0.4751
5,318,7,1,1,2,2,1,2,1,2,0.6916,2,1,1,0.4834
5,319,7,1,1,1,2,2,1,0,1,0.6763,1,2,2,0.4041
5,320,7,1,0,2,1,6,1,0,2,0.6154,2,1,1,0.4711
5,321,7,1,1,2,1,1,1,0,1,0.92,1,1,1,0.5268
5,322,7,1,0,1,1,1,1,1,1,0.8124,2,1,1,0.6681
5,323,7,1,1,2,2,1,1,1,2,0.5735,1,1,1,0.4933
5,324,7,1,0,1,1,4,2,1,1,0.5347,1,2,2,0.4544
5,325,7,1,1,1,1,5,1,1,1,0.7113,1,1,1,0.6951
5,326,7,1,0,2,1,2,2,0,2,0.944,1,1,1,0.4798
5,327,7,1,0,2,2,3,2,1,2,0.6962,1,1,1,0.424
5,328,7,1,0,2,1,4,1,0,2,0.7515,2,2,2,0.7353
5,329,7,1,1,2,1,5,1,0,2,0.8849,1,2,2,0.5487
5,330,7,1,1,2,2,5,1,1,2,0.8747,1,1,1,0.6665
5,331,7,1,0,1,1,1,2,1,1,0.7116,1,1,2,0.4394
5,332,7,1,0,2,1,5,1,0,2,0.8957,2,2,2,0.5594
5,333,7,1,0,2,1,2,1,0,2,0.8906,2,2,2,0.4904
5,334,7,1,0,1,2,1,1,0,1,1.0033,2,2,2,0.5392
5,335,7,1,1,1,2,3,2,0,1,0.83,2,1,1,0.7497
5,336,7,1,1,1,1,2,2,1,1,0.6837,2,2,2,0.4755
5,337,8,2,1,1,2,6,2,0,1,0.7042,2,2,2,0.5599
5,338,8,2,0,1,2,4,2,0,1,0.63,1,1,1,1.3818
5,339,8,2,1,2,2,5,2,1,2,0.6165,2,2,2,0.6003
5,340,8,2,0,2,2,5,2,1,2,0.5593,1,2,2,0.7351
5,341,8,2,0,2,1,4,1,0,2,0.6926,2,2,2,0.5484
5,342,8,2,1,1,2,5,1,0,1,0.6825,1,1,1,0.8583
5,343,8,2,1,2,1,2,1,0,2,0.7387,1,2,2,0.6584
5,344,8,2,1,2,1,2,2,0,2,0.7271,2,2,2,0.7749
5,345,8,2,1,1,2,1,2,0,1,1.0863,2,2,2,0.5581
5,346,8,2,0,2,1,3,1,0,2,0.8084,2,2,2,0.5362
5,347,8,2,1,2,1,5,2,0,2,0.7748,2,1,1,0.6305
5,348,8,2,1,1,2,4,1,0,1,0.7985,1,1,1,0.7183
5,349,8,2,1,2,1,6,1,0,2,0.7163,1,2,2,0.5721
5,350,8,2,0,2,2,2,1,1,2,0.6304,2,2,2,0.6782
5,351,8,2,0,2,2,4,2,1,2,0.6306,1,1,2,1.0624
5,352,8,2,1,1,1,2,1,1,1,0.7905,1,1,2,1.0944
5,353,8,2,0,1,1,6,2,1,1,0.5834,1,1,2,0.6312
5,354,8,2,0,2,1,6,2,0,2,0.7947,1,1,1,0.7145
5,355,8,2,0,2,1,2,2,0,2,0.8287,1,1,1,1.1325
5,356,8,2,1,2,2,1,1,1,2,0.6783,1,2,2,0.7901
5,357,8,2,0,1,2,5,2,0,1,0.7411,1,1,1,0.6609
5,358,8,2,1,2,2,5,1,1,2,0.7935,1,2,1,0.7133
5,359,8,2,1,1,2,1,1,0,1,0.6834,1,2,2,0.4751
5,360,8,2,0,1,2,6,2,0,1,0.6798,1,1,1,0.7276
5,361,8,2,0,2,1,5,2,0,1,0.5859,1,1,1,0.7899
5,362,8,2,1,1,1,4,1,1,1,0.8806,1,2,1,1.0564
5,363,8,2,1,1,1,4,2,1,1,0.6043,2,1,1,0.6521
5,364,8,2,0,2,1,1,2,0,2,0.756,1,1,1,0.6118
5,365,8,2,0,2,1,5,1,0,2,0.6231,2,1,1,0.6708
5,366,8,2,0,2,1,3,2,0,2,0.8792,1,1,1,0.6071
5,367,8,2,1,1,1,1,2,1,1,0.5543,2,2,2,0.666
5,368,8,2,1,2,1,4,1,0,2,0.7465,1,2,2,0.6023
5,369,8,2,0,1,1,5,2,1,1,0.7585,1,2,2,0.7422
5,370,8,2,0,1,1,6,1,1,1,0.5483,2,1,1,0.5321
5,371,8,2,0,2,2,3,1,1,2,1.0148,2,2,2,0.6786
5,372,8,2,0,2,2,1,2,1,2,0.7995,1,2,2,0.5273
5,373,8,2,0,1,2,1,1,0,1,0.7894,2,1,1,0.8371
5,374,8,2,0,1,1,2,2,1,1,0.8168,1,1,1,0.6086
5,375,8,2,0,1,2,4,1,0,1,0.6316,2,2,2,0.5514
5,376,8,2,0,2,2,1,1,1,2,0.6215,2,1,1,0.6693
5,377,8,2,1,2,2,6,2,1,2,0.6739,2,2,2,0.5937
5,378,8,2,1,1,1,3,2,1,1,0.6167,2,2,1,0.7925
5,379,8,2,1,1,1,3,1,1,1,0.7155,1,2,2,0.6993
5,380,8,2,1,1,2,2,2,0,2,0.9246,2,2,2,0.8514
5,381,8,2,1,2,1,6,2,0,2,0.8597,2,1,2,0.5875
5,382,8,2,0,1,2,3,1,0,1,0.7746,2,1,1,0.6943
5,383,8,2,1,2,2,3,1,1,1,0.9197,1,1,1,0.9104
5,384,8,2,0,1,1,2,1,1,1,0.6798,2,1,1,0.5995
6,1,1,2,1,1,1,6,1,1,1,0.6763,1,2,2,0.724
6,2,1,2,1,1,1,4,1,1,1,0.6552,1,2,2,0.703
6,3,1,2,1,2,1,5,1,0,2,0.6319,1,1,1,0.8717
6,4,1,2,1,1,2,1,2,0,1,1.0081,2,2,2,0.9279
6,5,1,2,0,2,1,4,1,0,2,0.6214,2,1,1,0.5412
6,6,1,2,1,1,1,3,2,1,1,0.6753,2,2,2,0.7231
6,7,1,2,0,2,1,3,2,0,2,0.6167,1,2,1,0.9204
6,8,1,2,1,2,2,4,2,1,2,0.65,2,2,1,0.6978
6,9,1,2,1,2,1,6,2,0,2,0.6679,2,1,1,0.4596
6,10,1,2,1,1,1,2,2,1,1,0.7401,2,2,2,0.4038
6,11,1,2,0,2,2,2,1,1,2,0.5511,2,1,1,0.4709
6,12,1,2,1,2,1,4,2,0,2,0.6116,2,1,1,0.5314
6,13,1,2,0,2,1,2,1,0,2,0.6772,2,2,2,0.405
6,14,1,2,1,1,1,4,2,1,1,0.6163,2,2,1,0.6
6,15,1,2,1,1,1,5,2,1,1,0.676,2,2,2,0.5318
6,16,1,2,0,1,2,5,1,0,2,1.0094,2,1,1,0.7258
6,17,1,2,1,1,1,1,2,1,1,0.5554,2,1,1,0.3472
6,18,1,2,1,1,2,6,1,0,1,0.821,1,1,1,0.6128
6,19,1,2,0,2,2,5,2,1,2,0.5718,1,2,2,0.6836
6,20,1,2,1,1,2,4,2,0,1,0.6242,2,2,1,0.48
6,21,1,2,1,1,2,1,1,0,1,0.6685,1,1,1,0.5882
6,22,1,2,0,1,2,2,1,0,1,0.9953,2,2,1,0.4031
6,23,1,2,0,2,1,6,2,0,2,0.7144,1,1,1,0.6981
6,24,1,2,1,2,2,2,2,1,2,0.6152,2,1,2,0.471
6,25,1,2,0,2,1,1,1,0,1,0.7117,2,1,1,0.5302
6,26,1,2,0,1,1,3,2,1,1,0.7518,1,1,1,0.5436
6,27,1,2,0,1,2,3,2,0,1,1.0094,1,2,1,0.6092
6,28,1,2,0,2,2,2,2,1,2,0.6043,1,1,1,0.5241
6,29,1,2,1,2,1,1,2,0,2,0.9376,2,1,1,0.6654
6,30,1,2,0,1,1,6,1,1,2,0.6465,2,1,1,0.7159
6,31,1,2,0,2,2,4,2,1,2,0.7493,1,1,1,0.669
6,32,1,2,0,1,2,6,1,0,1,0.7782,2,2,1,0.6339
6,33,1,2,1,2,1,2,1,0,2,0.7974,1,2,1,0.5892
6,34,1,2,1,1,2,5,1,0,1,0.724,1,1,1,0.4518
6,35,1,2,0,1,2,6,2,0,1,0.6278,1,2,2,0.4195
6,36,1,2,0,1,2,4,2,0,1,0.619,1,2,1,0.7308
6,37,1,2,1,2,2,1,2,1,2,0.9047,2,1,1,0.6324
6,38,1,2,1,1,2,2,1,0,1,0.8004,1,2,1,0.6562
6,39,1,2,0,1,1,3,1,1,1,0.7961,2,1,1,0.6519
6,40,1,2,1,1,1,6,2,1,1,0.6801,2,1,1,0.6639
6,41,1,2,0,1,2,5,2,0,1,0.8083,1,1,1,0.6
6,42,1,2,1,2,1,5,2,0,2,0.5473,2,2,2,0.5311
6,43,1,2,1,2,2,2,1,1,2,0.7527,1,2,2,0.4805
6,44,1,2,0,2,2,3,1,1,2,0.7491,2,2,1,0.7329
6,45,1,2,1,2,2,6,1,1,2,0.7788,1,1,2,0.6986
6,46,1,2,0,1,1,6,2,1,1,0.7157,1,2,2,0.6355
6,47,1,2,1,1,1,2,1,1,1,0.5997,1,2,1,0.6474
6,48,1,2,0,1,1,1,2,1,1,0.7116,1,1,1,0.5674
6,49,2,1,1,1,2,5,2,0,1,0.667,2,2,2,0.6508
6,50,2,1,0,1,1,1,2,1,1,0.679,1,2,2,0.8547
6,51,2,1,0,1,1,3,1,1,1,0.6829,2,1,1,0.6027
6,52,2,1,1,1,2,3,2,0,1,0.8699,2,1,1,0.5337
6,53,2,1,0,1,1,4,2,1,1,0.6678,1,1,1,0.5236
6,54,2,1,1,2,1,5,1,0,2,0.6812,1,2,1,0.601
6,55,2,1,1,1,1,4,2,1,1,0.5202,2,2,2,0.824
6,56,2,1,1,2,2,6,1,1,2,0.7397,1,2,1,0.8515
6,57,2,1,1,2,2,2,1,1,2,0.7039,1,1,1,0.6237
6,58,2,1,1,2,1,6,1,0,2,0.8152,1,2,2,0.7349
6,59,2,1,1,1,2,6,1,0,1,0.6808,1,1,2,0.5365
6,60,2,1,0,1,1,3,2,1,1,0.5264,1,2,2,0.5742
6,61,2,1,0,2,1,4,2,0,2,0.8127,1,2,2,0.5405
6,62,2,1,0,2,2,6,2,1,2,0.6392,1,2,2,0.4951
6,63,2,1,0,2,2,1,2,1,2,0.6122,1,2,2,0.724
6,64,2,1,1,2,2,3,2,1,2,0.6293,2,1,1,0.4851
6,65,2,1,1,2,2,5,2,1,2,0.6258,2,1,1,0.6096
6,66,2,1,1,2,1,4,2,0,2,0.6326,2,2,2,0.5524
6,67,2,1,0,1,2,5,1,0,1,0.8667,2,1,1,0.6584
6,68,2,1,0,1,1,1,1,1,1,0.6109,2,2,2,0.4667
6,69,2,1,0,1,1,5,1,1,1,0.5838,2,2,2,0.4396
6,70,2,1,1,2,2,1,1,1,2,0.6155,1,1,1,0.7273
6,71,2,1,0,2,2,6,1,1,2,0.6849,2,2,2,0.4127
6,72,2,1,0,2,2,5,2,1,2,0.5364,1,1,1,0.5202
6,73,2,1,0,1,1,2,1,1,1,0.6256,2,1,1,0.4813
6,74,2,1,0,2,2,4,1,1,2,0.494,2,1,1,0.6698
6,75,2,1,1,1,2,2,2,0,1,0.8024,2,1,1,0.5302
6,76,2,1,0,2,2,2,1,1,2,0.688,2,2,2,0.4796
6,77,2,1,0,1,2,1,2,0,1,0.7483,1,2,2,0.4761
6,78,2,1,1,1,1,2,2,1,1,0.6808,2,2,1,0.4725
6,79,2,1,1,1,1,4,1,1,1,0.7132,1,1,1,0.761
6,80,2,1,0,1,2,3,2,0,1,0.503,1,1,1,0.3588
6,81,2,1,1,2,1,3,1,0,2,0.5649,1,1,1,0.4847
6,82,2,1,0,2,1,1,1,0,2,0.8056,2,2,2,0.4695
6,83,2,1,1,1,2,4,1,0,1,0.5578,1,1,1,0.4776
6,84,2,1,1,1,1,2,1,1,1,0.6183,1,1,1,0.6021
6,85,2,1,1,2,1,2,2,0,2,0.6943,2,1,1,0.486
6,86,2,1,0,2,1,3,2,0,2,0.6032,1,2,1,0.715
6,87,2,1,1,1,2,2,1,0,1,0.7843,1,2,2,0.7041
6,88,2,1,1,1,1,6,1,1,1,0.5691,1,2,2,0.7448
6,89,2,1,0,1,1,5,2,1,1,0.6906,1,1,1,0.4824
6,90,2,1,0,2,2,3,2,1,2,0.623,1,1,1,0.4788
6,91,2,1,1,2,1,1,2,0,2,0.6835,2,2,2,0.4113
6,92,2,1,1,2,1,3,2,0,2,0.855,2,2,2,0.4548
6,93,2,1,1,2,2,2,2,1,2,0.683,2,2,2,0.4748
6,94,2,1,1,2,1,2,1,0,2,0.5514,1,1,2,0.4712
6,95,2,1,1,2,1,6,2,0,2,0.7119,2,1,1,0.3757
6,96,2,1,1,1,1,3,2,1,1,0.6745,2,1,1,0.7863
6,97,3,1,0,1,2,4,2,0,1,0.7011,1,2,2,0.429
6,98,3,1,1,1,2,1,1,0,1,0.6284,1,1,1,0.6763
6,99,3,1,1,1,1,3,1,1,1,0.6169,1,1,1,0.4726
6,100,3,1,0,2,1,5,1,0,2,0.6015,2,2,2,0.4573
6,101,3,1,1,1,1,6,2,1,1,0.6502,2,2,2,0.442
6,102,3,1,0,2,1,3,1,0,2,0.682,2,2,2,0.4738
6,103,3,1,1,1,2,3,1,0,1,0.7424,1,2,2,1.8782
6,104,3,1,0,1,2,3,1,0,1,0.7585,2,1,1,0.4223
6,105,3,1,1,1,1,5,2,1,1,0.6218,2,1,1,0.4136
6,106,3,1,0,1,1,6,1,1,1,0.5608,2,2,2,0.4806
6,107,3,1,1,2,2,3,1,1,2,0.8133,1,1,1,0.6051
6,108,3,1,0,2,1,4,1,0,2,0.7325,2,2,2,0.5883
6,109,3,1,1,2,2,6,2,1,2,0.8033,2,2,1,0.7871
6,110,3,1,0,2,1,1,2,0,2,0.7911,1,1,2,0.3909
6,111,3,1,0,2,2,3,1,1,2,0.4579,2,1,1,0.4417
6,112,3,1,0,1,2,6,1,0,1,0.7574,2,1,2,0.4212
6,113,3,1,0,1,1,4,1,1,1,0.5927,2,1,1,0.3845
6,114,3,1,0,1,2,6,2,0,1,0.6951,1,1,1,0.6789
6,115,3,1,1,2,1,5,2,0,2,0.8873,2,1,1,0.615
6,116,3,1,0,1,1,6,2,1,1,0.6785,1,2,2,0.5343
6,117,3,1,0,2,1,2,1,0,2,0.7089,2,1,1,0.7566
6,118,3,1,0,1,1,2,2,1,1,0.8069,1,2,2,0.4707
6,119,3,1,1,2,1,1,1,0,2,0.8556,1,1,1,0.3914
6,120,3,1,1,2,1,4,1,0,2,0.4747,1,1,1,0.4584
6,121,3,1,0,1,2,4,1,0,1,0.6278,2,1,1,0.4196
6,122,3,1,0,2,1,6,2,0,2,0.6192,1,2,2,0.4109
6,123,3,1,1,1,1,5,1,1,1,0.639,1,1,1,0.6229
6,124,3,1,0,2,2,4,2,1,2,0.4186,1,2,2,0.4023
6,125,3,1,1,2,2,4,2,1,2,0.4974,2,2,2,0.5452
6,126,3,1,0,2,2,2,2,1,2,0.563,1,1,2,0.5468
6,127,3,1,1,1,1,1,1,1,1,0.5366,1,1,1,0.3284
6,128,3,1,0,1,2,2,1,0,1,1.134,2,2,2,0.4778
6,129,3,1,1,1,2,1,2,0,1,0.7347,2,2,2,0.4625
6,130,3,1,0,2,2,5,1,1,2,0.6672,2,2,1,1.035
6,131,3,1,1,1,2,4,2,0,1,0.6638,2,1,1,0.4556
6,132,3,1,0,1,2,2,2,0,1,1.2767,1,1,1,0.5565
6,133,3,1,1,1,1,1,2,1,1,0.8068,2,2,2,0.4706
6,134,3,1,0,1,2,1,1,0,1,0.5356,2,1,1,0.4553
6,135,3,1,1,1,2,5,1,0,1,0.6195,1,1,1,0.4113
6,136,3,1,1,2,2,5,1,1,2,0.5468,1,2,2,0.5306
6,137,3,1,0,2,2,1,1,1,2,0.9442,2,2,1,0.7999
6,138,3,1,1,2,2,1,2,1,2,0.659,2,2,2,0.4507
6,139,3,1,1,2,2,4,1,1,2,0.551,1,1,1,1.1747
6,140,3,1,0,2,1,6,1,0,2,0.6852,2,2,2,0.733
6,141,3,1,0,1,2,5,2,0,1,0.7428,1,2,1,0.6626
6,142,3,1,0,2,1,5,2,0,2,0.8312,1,2,2,0.623
6,143,3,1,1,1,2,6,2,0,1,0.6108,2,2,2,0.5305
6,144,3,1,0,2,1,2,2,0,2,0.6006,1,1,1,1.0324
6,145,4,2,0,1,1,5,2,1,1,0.5119,1,2,1,0.4957
6,146,4,2,1,1,2,3,1,0,1,0.8748,1,1,1,0.4745
6,147,4,2,0,1,1,2,2,1,1,0.6152,1,2,2,0.599
6,148,4,2,0,2,2,6,2,1,2,0.6221,1,1,1,0.5418
6,149,4,2,0,2,1,5,1,0,2,0.8038,2,1,2,0.5956
6,150,4,2,0,2,2,6,1,1,2,0.5267,2,2,1,0.5745
6,151,4,2,1,2,1,3,2,0,2,0.6048,2,2,2,0.4606
6,152,4,2,0,2,1,6,1,0,2,0.8167,2,1,1,0.6725
6,153,4,2,0,1,2,2,2,0,1,0.9619,1,1,1,0.6897
6,154,4,2,1,2,1,1,1,0,2,0.7988,1,2,1,0.5906
6,155,4,2,1,2,1,2,2,0,2,0.6025,2,1,2,0.5863
6,156,4,2,0,2,1,1,2,0,2,0.9131,1,1,1,0.7049
6,157,4,2,0,2,1,4,2,0,2,0.8022,1,1,1,0.658
6,158,4,2,0,2,2,1,2,1,2,0.4942,1,1,1,0.542
6,159,4,2,0,1,1,5,1,1,1,0.5598,2,2,2,0.8636
6,160,4,2,1,2,1,3,1,0,2,0.744,1,1,1,0.5358
6,161,4,2,1,1,2,3,2,0,1,0.5654,2,1,2,0.7412
6,162,4,2,1,1,1,5,1,1,1,0.5832,1,1,1,0.567
6,163,4,2,1,2,2,6,2,1,2,0.5613,2,1,1,0.4811
6,164,4,2,1,2,1,6,1,0,2,0.7262,1,1,2,0.518
6,165,4,2,0,2,1,3,1,0,2,0.6476,2,2,1,0.4394
6,166,4,2,0,1,2,1,1,0,1,0.9074,2,2,2,0.4432
6,167,4,2,1,1,2,5,2,0,1,0.9914,2,2,1,0.5272
6,168,4,2,0,2,1,5,2,0,1,1.1048,1,2,1,0.7793
6,169,4,2,0,1,1,2,1,1,1,0.6759,2,2,2,0.4677
6,170,4,2,1,1,2,4,1,0,1,0.6201,1,2,2,0.5399
6,171,4,2,0,2,2,4,1,1,2,0.6335,2,2,2,0.4253
6,172,4,2,1,2,2,4,1,1,2,0.7528,1,1,1,0.4806
6,173,4,2,1,1,1,1,1,1,1,0.6852,1,2,2,0.4131
6,174,4,2,1,2,2,5,1,1,2,0.6125,1,2,1,0.4683
6,175,4,2,1,1,2,2,2,0,1,0.7965,2,2,2,0.4603
6,176,4,2,1,2,2,3,1,1,2,0.6127,1,1,2,0.5966
6,177,4,2,0,1,2,4,1,0,1,0.9756,2,1,1,0.5754
6,178,4,2,1,1,1,3,1,1,1,0.5631,1,1,1,0.6748
6,179,4,2,0,1,1,4,1,1,1,0.6155,2,1,1,0.5353
6,180,4,2,1,2,2,3,2,1,2,0.4774,2,1,2,0.4611
6,181,4,2,0,2,1,2,2,0,2,0.7423,1,2,2,0.4701
6,182,4,2,0,1,2,3,1,0,1,0.599,2,2,2,0.4548
6,183,4,2,1,2,1,4,1,0,2,0.6189,1,2,1,1.6268
6,184,4,2,0,1,1,1,1,1,1,0.5628,2,2,1,0.7386
6,185,4,2,0,1,2,1,2,0,1,1.2442,1,2,1,0.844
6,186,4,2,0,1,1,4,2,1,1,0.5919,1,1,1,0.5758
6,187,4,2,0,2,2,1,1,1,2,0.5112,2,1,1,0.623
6,188,4,2,0,2,2,5,1,1,2,0.8668,2,2,1,0.5945
6,189,4,2,1,2,2,1,1,1,7,7,1,1,1,0.5975
6,190,4,2,0,2,2,3,2,1,2,0.5448,1,2,1,0.6566
6,191,4,2,1,2,2,5,2,1,2,0.4935,2,2,1,0.7972
6,192,4,2,1,1,2,6,2,0,1,0.8482,2,1,1,0.64
6,193,5,1,1,1,1,4,1,1,1,0.5928,1,2,2,0.8966
6,194,5,1,1,1,1,6,2,1,1,0.6777,2,1,1,0.9175
6,195,5,1,1,2,1,2,2,0,2,0.611,2,2,1,0.4668
6,196,5,1,0,2,1,3,1,0,2,0.6031,2,2,2,0.4588
6,197,5,1,0,2,1,1,2,0,2,0.5473,1,2,2,1.043
6,198,5,1,0,2,1,5,1,0,2,0.5667,2,2,2,0.4865
6,199,5,1,0,1,2,4,1,0,1,0.4992,2,1,1,0.547
6,200,5,1,0,1,1,2,1,1,1,0.6928,2,1,1,0.6126
6,201,5,1,0,1,2,2,1,0,1,0.8158,2,1,1,0.9916
6,202,5,1,0,1,2,4,2,0,1,0.8183,1,2,2,0.4821
6,203,5,1,0,2,2,1,1,1,2,0.6111,2,1,1,0.4669
6,204,5,1,0,1,2,5,1,0,1,0.5553,2,2,2,0.411
6,205,5,1,1,2,2,1,1,1,2,0.5517,1,2,2,0.4715
6,206,5,1,0,2,1,1,1,0,2,1.0601,2,1,2,0.5959
6,207,5,1,0,1,1,4,1,1,1,0.5793,2,2,2,0.499
6,208,5,1,1,1,2,3,2,0,1,0.8199,2,1,1,0.8037
6,209,5,1,1,1,1,5,2,1,1,0.4986,2,1,1,0.3544
6,210,5,1,1,1,2,3,1,0,1,0.7408,1,1,1,0.4685
6,211,5,1,1,2,1,3,1,0,2,0.5688,1,1,1,0.4885
6,212,5,1,1,1,2,1,1,0,1,0.6932,1,2,2,0.485
6,213,5,1,0,1,1,6,1,1,1,0.5499,2,1,1,0.4057
6,214,5,1,0,1,1,6,2,1,1,0.6169,1,1,1,0.4727
6,215,5,1,1,1,2,6,2,0,1,0.7296,2,2,2,0.4574
6,216,5,1,0,1,1,2,2,1,1,0.5863,1,2,2,0.5701
6,217,5,1,1,1,1,4,2,1,1,0.6166,2,1,1,0.6004
6,218,5,1,1,1,1,2,2,1,1,0.4836,2,2,2,0.4034
6,219,5,1,0,1,2,6,1,0,1,0.6669,2,2,2,0.3947
6,220,5,1,1,1,2,1,2,0,1,0.6935,2,2,2,0.4213
6,221,5,1,0,2,2,2,2,1,2,0.5687,1,2,2,0.4884
6,222,5,1,0,2,1,3,2,0,2,0.693,1,1,1,1.0608
6,223,5,1,0,1,1,5,1,1,1,0.625,2,1,1,0.3527
6,224,5,1,1,1,2,4,2,0,1,0.675,2,1,1,0.4028
6,225,5,1,0,2,1,6,1,0,2,0.6259,2,2,2,0.7376
6,226,5,1,0,2,1,5,2,0,2,0.8755,1,1,1,0.6033
6,227,5,1,0,2,2,3,1,1,2,0.4747,2,2,2,0.5865
6,228,5,1,0,1,1,1,1,1,1,0.5742,2,1,1,0.366
6,229,5,1,0,2,2,6,1,1,2,0.5486,2,2,2,0.4684
6,230,5,1,0,2,2,6,2,1,2,0.5451,1,2,2,0.4008
6,231,5,1,0,2,2,3,2,1,2,0.4841,1,1,1,0.5958
6,232,5,1,0,2,2,4,2,1,2,0.4909,1,1,1,0.5387
6,233,5,1,0,1,2,6,2,0,1,0.8242,1,1,2,0.36
6,234,5,1,1,2,2,3,2,1,2,0.6021,2,1,1,0.5219
6,235,5,1,1,2,2,4,2,1,2,0.4993,2,1,2,1.1871
6,236,5,1,0,2,1,4,2,0,2,0.6578,1,2,2,0.5136
6,237,5,1,1,2,1,6,2,0,2,0.8868,2,2,2,0.4225
6,238,5,1,1,1,1,3,1,1,1,0.7905,1,1,1,0.5183
6,239,5,1,1,2,1,4,1,0,2,0.6001,1,2,2,0.4559
6,240,5,1,1,1,1,3,2,1,1,0.6841,2,2,2,0.4759
6,241,6,2,0,2,2,3,1,1,2,0.5214,2,1,1,0.8252
6,242,6,2,0,1,1,6,1,1,1,0.5657,2,1,2,0.5496
6,243,6,2,0,2,1,5,2,0,2,0.7196,1,1,1,0.5755
6,244,6,2,0,1,1,2,2,1,1,0.622,1,2,2,0.7337
6,245,6,2,1,1,1,2,2,1,1,0.6273,2,1,2,0.6751
6,246,6,2,1,2,1,1,1,0,2,0.7916,1,2,2,0.7113
6,247,6,2,0,2,1,2,1,0,2,0.9484,2,1,2,0.4202
6,248,6,2,1,1,2,2,1,0,1,0.7315,1,1,1,0.6513
6,249,6,2,0,2,2,6,2,1,2,0.5632,1,2,2,0.483
6,250,6,2,1,2,2,5,2,1,2,0.5009,2,1,2,0.6766
6,251,6,2,0,1,1,5,2,1,1,0.5775,1,2,2,0.4973
6,252,6,2,1,1,1,1,1,1,1,0.6314,1,2,2,0.6152
6,253,6,2,1,2,1,6,1,0,2,0.6147,1,2,1,0.5985
6,254,6,2,0,1,1,4,2,1,1,0.6575,1,1,2,0.8332
6,255,6,2,1,1,1,5,1,1,1,0.5813,1,1,1,0.501
6,256,6,2,1,2,2,4,2,1,2,0.4379,2,1,1,0.4857
6,257,6,2,1,2,1,3,2,0,2,0.6264,2,1,2,0.9301
6,258,6,2,0,1,1,1,2,1,1,0.5317,1,1,1,0.7715
6,259,6,2,0,1,1,3,1,1,1,0.5018,2,2,2,0.6776
6,260,6,2,0,2,2,5,2,1,2,0.4902,1,2,2,0.858
6,261,6,2,0,1,2,1,1,0,1,1.0061,2,2,1,0.6699
6,262,6,2,1,2,2,6,1,1,2,0.5186,1,2,2,0.5664
6,263,6,2,0,1,2,3,1,0,1,0.8571,2,2,2,0.5209
6,264,6,2,1,1,1,4,1,1,1,0.5675,1,2,2,0.6793
6,265,6,2,1,2,2,3,1,1,2,0.4919,1,2,2,0.4757
6,266,6,2,1,1,2,4,2,0,1,0.7326,2,2,2,0.7164
6,267,6,2,1,1,1,4,2,1,1,0.4179,2,2,2,0.7218
6,268,6,2,0,1,2,3,2,0,1,0.708,1,1,1,0.5638
6,269,6,2,0,1,2,2,1,0,1,0.7501,2,1,2,0.4779
6,270,6,2,0,2,2,2,2,1,2,0.4744,1,2,1,0.7781
6,271,6,2,1,2,2,1,1,1,2,0.5849,1,1,1,0.6967
6,272,6,2,0,1,2,2,2,0,1,0.6138,1,1,2,0.4056
6,273,6,2,0,2,2,4,2,1,2,0.4727,1,2,2,0.5844
6,274,6,2,0,2,1,1,1,0,2,0.7641,2,1,1,0.5559
6,275,6,2,0,1,2,6,2,0,1,0.4745,1,2,1,0.9063
6,276,6,2,0,1,1,3,2,1,1,0.6006,1,2,2,0.7763
6,277,6,2,1,1,1,3,1,1,1,0.611,1,1,1,0.7228
6,278,6,2,1,2,1,2,1,0,2,0.5811,1,1,1,0.5009
6,279,6,2,1,2,1,5,1,0,2,0.938,1,1,1,0.5378
6,280,6,2,1,1,2,5,1,0,1,0.6601,1,2,2,0.5799
6,281,6,2,1,2,2,1,2,1,2,0.6905,2,1,2,0.6102
6,282,6,2,1,2,2,4,1,1,2,0.4773,1,2,2,0.781
6,283,6,2,0,2,2,5,1,1,2,0.4996,2,2,2,0.5474
6,284,6,2,1,2,1,3,1,0,2,0.6814,1,1,1,0.6012
6,285,6,2,0,2,1,6,2,0,1,0.6124,1,1,2,1.2291
6,286,6,2,0,2,2,4,1,1,2,0.4344,2,1,2,0.7382
6,287,6,2,0,1,2,5,1,0,1,0.7722,2,2,2,0.628
6,288,6,2,0,2,1,5,1,0,2,0.604,2,2,2,0.5878
6,289,7,2,1,2,1,1,2,0,2,0.5869,2,2,1,0.7627
6,290,7,2,0,2,2,6,1,1,2,0.5835,2,1,2,0.5033
6,291,7,2,1,1,2,4,1,0,1,0.7727,1,1,1,0.5005
6,292,7,2,1,2,1,4,2,0,2,0.5301,2,2,1,0.8979
6,293,7,2,0,2,1,6,1,0,2,0.8547,2,1,1,0.8385
6,294,7,2,0,2,2,1,1,1,2,0.5622,2,2,1,0.674
6,295,7,2,0,1,2,4,2,0,1,0.9184,1,2,2,0.7742
6,296,7,2,0,2,1,3,1,0,2,0.7605,2,2,2,1.1283
6,297,7,2,1,2,2,2,2,1,2,0.5578,2,2,1,0.5417
6,298,7,2,1,2,1,4,1,0,2,0.5719,1,2,2,0.6197
6,299,7,2,0,1,2,1,2,0,1,1.0437,1,2,1,0.5155
6,300,7,2,1,2,2,5,1,1,2,0.6443,1,1,1,0.4368
6,301,7,2,1,1,2,6,1,0,1,0.5488,1,1,1,0.5326
6,302,7,2,1,2,2,3,2,1,2,0.4511,2,1,1,0.4989
6,303,7,2,1,1,2,3,2,0,1,0.8721,2,1,1,0.7918
6,304,7,2,0,1,1,6,2,1,1,0.5914,1,1,2,0.6391
6,305,7,2,0,1,2,5,2,0,1,0.6628,1,2,1,0.7106
6,306,7,2,1,1,1,5,2,1,1,0.5997,2,2,2,0.4555
6,307,7,2,1,1,2,2,2,0,1,0.9397,2,2,2,0.5396
6,308,7,2,1,1,1,2,1,1,1,0.6331,1,1,1,0.8089
6,309,7,2,1,1,2,3,1,0,1,0.7128,1,2,2,0.4406
6,310,7,2,1,1,1,3,2,1,1,0.6048,2,1,1,0.5246
6,311,7,2,0,1,1,2,1,1,1,0.5711,2,2,1,0.683
6,312,7,2,0,2,1,1,2,0,2,0.508,1,2,2,1.3238
6,313,7,2,1,2,2,6,2,1,2,0.4423,2,1,1,0.746
6,314,7,2,0,2,2,2,1,1,2,0.4763,2,2,1,0.4601
6,315,7,2,1,2,2,2,1,1,2,0.5493,1,2,2,0.4691
6,316,7,2,1,2,1,5,2,0,2,0.8893,2,1,2,0.425
6,317,7,2,0,1,2,4,1,0,1,0.5966,2,2,1,0.6443
6,318,7,2,1,2,1,6,2,0,2,0.6681,2,1,2,0.4599
6,319,7,2,0,1,1,5,1,1,1,0.5961,2,2,1,0.5798
6,320,7,2,1,1,1,6,1,1,1,0.5866,1,2,2,0.8904
6,321,7,2,0,1,1,1,1,1,1,0.6951,2,1,1,1.0629
6,322,7,2,0,2,2,3,2,1,2,0.4924,1,1,1,0.7962
6,323,7,2,1,1,1,1,2,1,1,0.6832,2,1,1,0.475
6,324,7,2,1,1,1,6,2,1,1,0.6796,2,1,1,0.7914
6,325,7,2,1,1,2,6,2,0,1,0.6784,2,2,1,0.5982
6,326,7,2,1,2,1,2,2,0,2,0.6859,2,2,1,0.6697
