SN,Trial,Block,vstmLoad,Targ,Flnk,TargPos,FlnkPos,Congruency,Resp,RT,vstmCond,vstmResp,vstmRT
1,1,1,1,2,2,4,1,1,7,7,1,7,7
1,2,1,1,2,1,2,2,0,2,1.079,1,7,7
1,3,1,1,2,1,5,1,0,2,1.0316,1,7,7
1,4,1,1,1,1,5,2,1,1,0.8276,1,7,7
1,5,1,1,2,1,4,1,0,2,0.6838,1,7,7
1,6,1,1,2,1,4,2,0,2,0.6928,1,7,7
1,7,1,1,1,2,5,2,0,1,0.8298,1,7,7
1,8,1,1,2,2,6,1,1,2,1.0464,1,7,7
1,9,1,1,2,1,1,1,0,2,0.7667,2,7,7
1,10,1,1,1,1,4,2,1,1,0.7051,2,7,7
1,11,1,1,1,1,2,1,1,1,0.8304,1,7,7
1,12,1,1,1,2,4,2,0,1,0.6461,1,7,7
1,13,1,1,2,1,3,1,0,2,0.6383,1,7,7
1,14,1,1,1,2,2,1,0,1,0.7062,1,7,7
1,15,1,1,2,2,4,2,1,2,0.6396,2,7,7
1,16,1,1,2,1,3,2,0,2,1.0914,1,7,7
1,17,1,1,2,2,5,2,1,2,0.8403,2,7,7
1,18,1,1,1,1,5,1,1,1,0.6324,1,7,7
1,19,1,1,1,1,6,2,1,1,0.8923,1,7,7
1,20,1,1,1,2,1,1,0,1,0.6492,2,7,7
1,21,1,1,2,1,2,1,0,2,0.6936,1,7,7
1,22,1,1,1,1,1,1,1,1,0.8306,2,7,7
1,23,1,1,1,2,2,2,0,1,0.6986,1,7,7
1,24,1,1,2,2,6,2,1,2,0.6841,2,7,7
1,25,1,1,2,2,3,1,1,2,0.9492,2,7,7
1,26,1,1,2,1,5,2,0,2,0.6995,2,7,7
1,27,1,1,1,2,5,1,0,1,0.6329,2,7,7
1,28,1,1,1,1,2,2,1,1,1.073,2,7,7
1,29,1,1,2,2,2,1,1,2,0.7578,1,7,7
1,30,1,1,2,2,1,2,1,2,0.6441,1,7,7
1,31,1,1,1,1,4,1,1,1,0.584,2,7,7
1,32,1,1,2,2,3,2,1,2,0.7108,2,7,7
1,33,1,1,2,1,6,1,0,2,0.8243,1,7,7
1,34,1,1,2,2,1,1,1,2,0.6283,2,7,7
1,35,1,1,1,1,6,1,1,1,0.5682,2,7,7
1,36,1,1,1,1,3,1,1,1,0.8987,1,7,7
1,37,1,1,1,2,4,1,0,1,0.5798,1,7,7
1,38,1,1,2,1,1,2,0,2,0.6308,2,7,7
1,39,1,1,1,2,6,1,0,1,0.5994,1,7,7
1,40,1,1,1,2,3,2,0,1,1.0109,2,7,7
1,41,1,1,2,2,5,1,1,2,0.6788,2,7,7
1,42,1,1,1,1,1,2,1,1,0.6356,2,7,7
1,43,1,1,1,1,3,2,1,1,0.7676,2,7,7
1,44,1,1,2,2,2,2,1,2,0.6422,2,7,7
1,45,1,1,1,2,6,2,0,1,1.094,2,7,7
1,46,1,1,1,2,3,1,0,1,0.6155,1,7,7
1,47,1,1,1,2,1,2,0,1,0.5959,2,7,7
1,48,1,1,2,1,6,2,0,2,0.6351,2,7,7
1,49,2,2,2,2,5,1,1,2,1.0475,2,2,1.0313
1,50,2,2,2,1,4,2,0,2,0.9541,1,1,1.0659
1,51,2,2,1,2,2,1,0,1,1.1977,1,1,1.1814
1,52,2,2,2,2,6,1,1,1,0.8233,2,2,0.9082
1,53,2,2,1,1,6,2,1,2,0.6927,1,1,1.5587
1,54,2,2,2,2,1,1,1,2,1.3883,2,2,0.9241
1,55,2,2,1,2,1,2,0,1,0.8888,1,1,1.2566
1,56,2,2,1,2,4,2,0,1,1.0316,1,1,1.1434
1,57,2,2,2,2,4,1,1,2,0.9603,1,1,1.0081
1,58,2,2,2,1,1,1,0,2,1.5422,2,2,0.758
1,59,2,2,2,1,3,2,0,2,1.2715,1,1,1.1912
1,60,2,2,2,1,5,1,0,2,0.914,2,2,0.7698
1,61,2,2,1,2,6,2,0,1,0.8639,1,1,1.0397
1,62,2,2,1,1,6,1,1,1,0.8228,1,1,0.9986
1,63,2,2,1,2,3,2,0,1,1.0324,2,2,0.7602
1,64,2,2,2,1,2,2,0,2,0.9014,2,2,1.2052
1,65,2,2,1,1,2,1,1,1,0.8353,2,2,0.7551
1,66,2,2,2,2,2,2,1,2,1.4083,1,1,0.8801
1,67,2,2,2,2,3,2,1,2,0.8278,2,2,0.5557
1,68,2,2,1,2,4,1,0,1,0.9373,2,2,0.7291
1,69,2,2,1,2,3,1,0,1,0.7424,2,2,0.6621
1,70,2,2,2,1,5,2,0,2,0.8975,2,2,0.8812
1,71,2,2,1,1,2,2,1,1,0.7819,1,1,0.7657
1,72,2,2,1,2,5,2,0,1,0.7671,2,2,0.6869
1,73,2,2,1,1,3,2,1,1,0.8987,1,1,0.7545
1,74,2,2,2,2,2,1,1,2,0.82,1,1,0.5477
1,75,2,2,1,1,5,1,1,1,0.7779,1,1,0.9537
1,76,2,2,2,1,6,1,0,2,1.0111,1,2,1.0589
1,77,2,2,2,1,4,1,0,2,1.2266,2,2,0.7624
1,78,2,2,2,2,6,2,1,2,0.7756,1,1,0.8234
1,79,2,2,1,1,1,1,1,1,0.83,2,1,0.8138
1,80,2,2,2,1,6,2,0,2,0.8042,2,2,1.428
1,81,2,2,1,2,6,1,0,1,1.8586,1,1,1.1383
1,82,2,2,2,2,3,1,1,2,0.6992,2,2,0.619
1,83,2,2,1,2,1,1,0,1,0.8257,2,1,1.4494
1,84,2,2,2,1,2,1,0,2,0.7339,2,2,0.5896
1,85,2,2,2,2,4,2,1,2,0.8198,1,1,0.8676
1,86,2,2,1,1,4,1,1,1,0.7631,2,2,0.6189
1,87,2,2,1,2,2,2,0,1,1.1573,2,1,0.8211
1,88,2,2,1,1,1,2,1,1,0.7475,1,1,0.6033
1,89,2,2,1,1,5,2,1,1,0.7577,1,2,1.0614
1,90,2,2,2,1,3,1,0,2,0.793,1,1,0.7128
1,91,2,2,1,1,3,1,1,1,0.7613,2,1,0.553
1,92,2,2,2,2,5,2,1,2,0.7265,2,2,1.0943
1,93,2,2,2,1,1,2,0,2,0.9988,1,1,0.6625
1,94,2,2,2,2,1,2,1,2,0.7699,2,2,0.5617
1,95,2,2,1,1,4,2,1,2,0.6468,1,1,0.8442
1,96,2,2,1,2,5,1,0,1,1.0951,1,2,1.2709
1,97,3,2,2,2,3,2,1,2,0.8718,2,2,0.5995
1,98,3,2,2,1,5,2,0,1,0.69,2,1,1.236
1,99,3,2,1,1,1,1,1,1,0.8838,2,2,0.8035
1,100,3,2,2,2,6,2,1,2,0.7579,1,1,0.6137
1,101,3,2,1,1,5,1,1,1,0.6401,1,1,0.8799
1,102,3,2,1,1,3,2,1,1,0.9674,2,1,0.8872
1,103,3,2,2,2,1,2,1,2,0.807,2,2,0.8548
1,104,3,2,1,2,3,2,0,1,0.8901,1,1,1.0659
1,105,3,2,1,1,3,1,1,1,0.7614,2,2,1.2572
1,106,3,2,2,1,2,1,0,2,0.8284,2,2,1.0682
1,107,3,2,2,1,3,1,0,2,0.816,2,2,0.7997
1,108,3,2,2,1,2,2,0,2,0.8351,2,2,0.8829
1,109,3,2,1,2,1,2,0,1,0.8189,2,2,0.6746
1,110,3,2,1,2,2,2,0,1,0.7702,1,1,0.69
1,111,3,2,2,1,4,2,0,2,0.8378,1,1,1.9096
1,112,3,2,1,1,5,2,1,1,0.9617,1,1,0.6255
1,113,3,2,2,2,2,2,1,2,0.7328,2,2,0.6526
1,114,3,2,2,2,6,1,1,2,0.8879,1,1,0.9357
1,115,3,2,1,2,2,1,0,1,0.9527,2,2,0.6805
1,116,3,2,1,2,5,2,0,1,0.7642,2,1,0.62
1,117,3,2,1,2,4,1,0,1,0.7347,2,2,0.5905
1,118,3,2,2,2,3,1,1,2,0.7853,1,1,0.5771
1,119,3,2,1,1,6,1,1,1,0.819,2,2,1.5068
1,120,3,2,2,1,6,1,0,2,0.767,1,1,0.8788
1,121,3,2,1,2,1,1,0,1,0.9023,1,1,0.6941
1,122,3,2,2,1,6,2,0,2,0.7021,2,1,0.6859
1,123,3,2,1,2,3,1,0,1,0.6778,1,1,0.7255
1,124,3,2,2,2,2,1,1,1,0.8903,1,1,0.7883
1,125,3,2,1,2,4,2,0,2,0.6904,1,1,0.4685
1,126,3,2,1,1,6,2,1,1,0.781,1,1,0.5728
1,127,3,2,1,1,2,2,1,1,0.7507,1,1,0.7345
1,128,3,2,2,1,4,1,0,2,0.7477,2,2,0.8595
1,129,3,2,2,2,4,2,1,2,1.0111,1,1,1.2508
1,130,3,2,1,1,1,2,1,1,1.095,1,1,0.6308
1,131,3,2,2,2,1,1,1,2,1.3377,2,2,0.6174
1,132,3,2,2,2,5,2,1,2,0.9808,1,1,1.0286
1,133,3,2,1,2,6,1,0,1,1.0911,2,2,0.6909
1,134,3,2,2,1,1,2,0,2,1.211,1,1,0.5547
1,135,3,2,1,1,2,1,1,1,0.7562,2,2,1.188
1,136,3,2,1,2,5,1,0,1,0.7018,2,2,0.6856
1,137,3,2,2,1,1,1,0,1,0.6937,2,2,0.844
1,138,3,2,1,1,4,1,1,1,0.78,1,1,0.7638
1,139,3,2,2,1,3,2,0,2,0.9454,2,2,0.6732
1,140,3,2,2,1,5,1,0,2,0.8211,1,2,0.8048
1,141,3,2,1,2,6,2,0,1,1.1792,1,1,0.907
1,142,3,2,1,1,4,2,1,1,0.8195,2,2,0.7393
1,143,3,2,2,2,5,1,1,2,0.8283,1,2,0.684
1,144,3,2,2,2,4,1,1,2,0.8038,1,1,0.5956
1,145,4,1,1,2,5,2,0,1,1.2265,1,7,7
1,146,4,1,1,1,2,2,1,2,1.3344,1,7,7
1,147,4,1,1,2,6,1,0,1,0.8082,2,7,7
1,148,4,1,1,2,4,2,0,1,0.7165,2,7,7
1,149,4,1,1,2,2,2,0,1,0.6263,1,7,7
1,150,4,1,1,1,2,1,1,1,0.5663,1,7,7
1,151,4,1,1,2,1,1,0,1,0.6812,2,7,7
1,152,4,1,1,2,2,1,0,1,0.5623,2,7,7
1,153,4,1,2,2,4,1,1,2,0.6368,2,7,7
1,154,4,1,2,2,6,2,1,2,0.6291,1,7,7
1,155,4,1,1,1,3,2,1,1,0.889,1,7,7
1,156,4,1,2,2,2,1,1,2,0.6458,1,7,7
1,157,4,1,2,1,1,2,0,2,1.1499,2,7,7
1,158,4,1,1,1,5,1,1,1,0.7002,2,7,7
1,159,4,1,2,1,5,2,0,2,0.7615,2,7,7
1,160,4,1,1,1,4,2,1,1,0.7,1,7,7
1,161,4,1,2,1,3,2,0,2,1.2733,1,7,7
1,162,4,1,2,2,2,2,1,2,1.0142,1,7,7
1,163,4,1,2,1,2,2,0,2,0.7107,1,7,7
1,164,4,1,2,1,4,2,0,2,0.6206,2,7,7
1,165,4,1,2,1,6,2,0,2,0.5723,2,7,7
1,166,4,1,2,2,6,1,1,2,0.5188,1,7,7
1,167,4,1,2,2,3,2,1,2,0.7044,2,7,7
1,168,4,1,1,1,5,2,1,1,0.6495,2,7,7
1,169,4,1,2,2,1,1,1,2,0.8336,1,7,7
1,170,4,1,1,1,1,2,1,1,0.7302,2,7,7
1,171,4,1,2,1,6,1,0,2,1.6405,1,7,7
1,172,4,1,1,2,3,2,0,1,0.7488,2,7,7
1,173,4,1,1,2,6,2,0,1,0.7631,2,7,7
1,174,4,1,2,1,2,1,0,2,0.7016,1,7,7
1,175,4,1,1,1,4,1,1,1,0.6518,2,7,7
1,176,4,1,1,1,3,1,1,1,0.6962,2,7,7
1,177,4,1,2,2,4,2,1,2,0.7054,2,7,7
1,178,4,1,2,1,1,1,0,1,0.6269,2,7,7
1,179,4,1,2,2,5,1,1,2,1.2546,2,7,7
1,180,4,1,1,1,1,1,1,1,0.4429,2,7,7
1,181,4,1,1,2,5,1,0,1,0.5829,2,7,7
1,182,4,1,1,2,4,1,0,1,0.5699,1,7,7
1,183,4,1,2,2,5,2,1,2,1.1094,1,7,7
1,184,4,1,2,1,4,1,0,2,0.7066,2,7,7
1,185,4,1,2,2,1,2,1,2,0.7562,1,7,7
1,186,4,1,2,2,3,1,1,2,0.6307,1,7,7
1,187,4,1,2,1,5,1,0,2,0.6347,1,7,7
1,188,4,1,1,2,3,1,0,1,0.6268,1,7,7
1,189,4,1,1,1,6,1,1,1,0.6425,2,7,7
1,190,4,1,1,2,1,2,0,1,0.7105,1,7,7
1,191,4,1,1,1,6,2,1,1,0.568,1,7,7
1,192,4,1,2,1,3,1,0,2,0.5785,1,7,7
2,1,1,2,1,1,3,1,1,2,0.602,2,2,1.1023
2,2,1,2,2,1,4,2,0,2,0.5353,2,2,1.095
2,3,1,2,2,2,1,2,1,1,0.6913,2,2,1.1093
2,4,1,2,2,1,3,1,0,2,0.6416,2,2,0.7533
2,5,1,2,2,1,5,2,0,1,0.7665,1,1,0.7182
2,6,1,2,2,1,6,1,0,2,0.947,1,2,0.9948
2,7,1,2,2,1,2,2,0,2,0.6807,1,1,0.8565
2,8,1,2,1,1,5,2,1,2,0.6476,1,2,1.1649
2,9,1,2,2,1,6,2,0,2,0.6743,1,1,0.7221
2,10,1,2,2,2,1,1,1,2,0.5786,1,1,0.6263
2,11,1,2,2,2,3,2,1,2,0.577,1,1,0.6248
2,12,1,2,1,2,4,1,0,2,0.7035,2,2,0.9817
2,13,1,2,2,2,5,1,1,2,0.6433,1,1,0.6271
2,14,1,2,1,1,3,2,1,2,0.5138,2,1,1.8123
2,15,1,2,1,1,1,2,1,1,0.8195,1,1,1.0593
2,16,1,2,2,1,3,2,0,2,0.743,2,2,0.6628
2,17,1,2,1,2,1,2,0,1,0.8106,1,2,0.8584
2,18,1,2,1,2,5,2,0,1,0.662,1,1,0.5177
2,19,1,2,2,2,5,2,1,2,0.6787,2,2,0.9186
2,20,1,2,2,1,1,2,0,1,0.6729,1,1,0.6547
2,21,1,2,1,2,3,1,0,1,0.8261,2,2,0.6818
2,22,1,2,2,2,4,2,1,2,0.7016,2,2,0.5574
2,23,1,2,1,1,4,2,1,1,0.6426,1,1,0.6264
2,24,1,2,1,2,4,2,0,1,0.8971,1,1,0.8808
2,25,1,2,2,1,4,1,0,2,0.6366,2,2,0.6844
2,26,1,2,1,2,6,1,0,2,0.6284,1,2,0.8493
2,27,1,2,2,2,2,1,1,2,0.6764,1,1,0.5962
2,28,1,2,1,2,3,2,0,1,0.6343,2,1,0.9381
2,29,1,2,2,1,2,1,0,2,0.6828,2,2,0.6666
2,30,1,2,2,2,2,2,1,1,0.5702,2,2,0.7219
2,31,1,2,1,1,5,1,1,1,0.7116,2,2,0.6954
2,32,1,2,1,1,2,2,1,1,0.5637,1,1,0.4834
2,33,1,2,1,1,6,1,1,1,0.6392,2,1,0.751
2,34,1,2,1,1,2,1,1,1,0.556,1,1,0.5398
2,35,1,2,1,2,5,1,0,1,1.0965,2,2,0.6963
2,36,1,2,2,2,6,2,1,1,0.5764,1,1,0.6523
2,37,1,2,1,2,6,2,0,1,0.5676,2,2,0.6794
2,38,1,2,1,2,1,1,0,1,0.728,1,1,0.6477
2,39,1,2,1,1,6,2,1,1,0.563,2,2,0.5468
2,40,1,2,2,1,5,1,0,2,0.7601,2,2,0.6798
2,41,1,2,2,2,6,1,1,2,0.5076,2,1,0.6194
2,42,1,2,1,2,2,2,0,1,0.6178,2,2,0.6016
2,43,1,2,1,1,1,1,1,1,0.6398,1,1,0.8155
2,44,1,2,2,1,1,1,0,1,0.5139,1,1,0.7885
2,45,1,2,2,2,3,1,1,2,0.5626,2,2,0.6104
2,46,1,2,1,2,2,1,0,1,0.561,2,2,0.6088
2,47,1,2,1,1,4,1,1,1,0.5072,1,1,0.427
2,48,1,2,2,2,4,1,1,2,0.6416,1,1,0.5614
2,49,2,1,2,2,4,2,1,2,0.7818,2,7,7
2,50,2,1,2,1,2,2,0,2,0.6446,2,7,7
2,51,2,1,1,1,3,1,1,1,0.4447,1,7,7
2,52,2,1,1,1,1,1,1,1,0.4449,1,7,7
2,53,2,1,1,1,3,2,1,1,0.4451,1,7,7
2,54,2,1,1,2,4,1,0,1,0.5733,2,7,7
2,55,2,1,1,2,6,1,0,1,0.7758,1,7,7
2,56,2,1,2,1,1,1,0,2,0.5628,2,7,7
2,57,2,1,1,2,2,2,0,1,0.6374,2,7,7
2,58,2,1,1,1,2,1,1,1,0.4492,1,7,7
2,59,2,1,2,1,3,2,0,2,0.5656,1,7,7
2,60,2,1,2,2,1,1,1,2,0.6284,1,7,7
2,61,2,1,2,2,6,1,1,2,0.4403,2,7,7
2,62,2,1,1,1,5,1,1,1,0.5045,1,7,7
2,63,2,1,1,2,4,2,0,1,0.4459,2,7,7
2,64,2,1,1,2,2,1,0,1,0.446,1,7,7
2,65,2,1,2,2,4,1,1,2,0.5102,2,7,7
2,66,2,1,2,1,2,1,0,2,0.6436,2,7,7
2,67,2,1,2,1,3,1,0,1,0.4438,1,7,7
2,68,2,1,1,1,5,2,1,1,0.5962,1,7,7
2,69,2,1,1,2,3,1,0,1,0.4434,1,7,7
2,70,2,1,2,2,5,1,1,2,0.5076,1,7,7
2,71,2,1,2,1,4,2,0,2,0.6932,2,7,7
2,72,2,1,2,2,2,2,1,2,0.5103,2,7,7
2,73,2,1,2,1,1,2,0,2,0.4516,1,7,7
2,74,2,1,1,1,4,2,1,1,0.4689,2,7,7
2,75,2,1,2,2,3,1,1,2,0.5094,1,7,7
2,76,2,1,2,2,3,2,1,2,0.567,2,7,7
2,77,2,1,2,2,6,2,1,2,0.4378,2,7,7
2,78,2,1,1,1,6,2,1,1,0.4498,2,7,7
2,79,2,1,2,2,5,2,1,2,0.5139,1,7,7
2,80,2,1,1,2,1,2,0,2,0.5075,1,7,7
2,81,2,1,2,1,5,2,0,2,0.4849,1,7,7
2,82,2,1,2,1,4,1,0,2,0.502,2,7,7
2,83,2,1,1,2,5,2,0,7,7,1,7,7
2,84,2,1,1,2,5,1,0,1,0.5905,1,7,7
2,85,2,1,1,2,1,1,0,1,0.5421,1,7,7
2,86,2,1,1,1,1,2,1,1,0.6402,2,7,7
2,87,2,1,2,1,5,1,0,2,0.5161,1,7,7
2,88,2,1,1,1,6,1,1,1,0.4575,2,7,7
2,89,2,1,2,1,6,2,0,1,0.4981,2,7,7
2,90,2,1,1,1,2,2,1,1,0.4637,2,7,7
2,91,2,1,2,2,2,1,1,2,0.5044,2,7,7
2,92,2,1,1,1,4,1,1,1,0.4458,2,7,7
2,93,2,1,1,2,3,2,0,1,0.4107,2,7,7
2,94,2,1,2,2,1,2,1,2,0.5741,2,7,7
2,95,2,1,1,2,6,2,0,1,0.4567,1,7,7
2,96,2,1,2,1,6,1,0,2,0.5208,1,7,7
2,97,3,1,2,1,3,1,0,2,0.6924,1,7,7
2,98,3,1,2,2,4,1,1,2,0.5904,2,7,7
2,99,3,1,2,2,4,2,1,1,0.5016,2,7,7
2,100,3,1,1,2,1,2,0,1,0.479,1,7,7
2,101,3,1,1,2,5,1,0,1,0.5197,1,7,7
2,102,3,1,1,1,6,1,1,1,0.5015,1,7,7
2,103,3,1,2,2,3,1,1,2,0.5186,1,7,7
2,104,3,1,1,1,3,1,1,1,0.3842,2,7,7
2,105,3,1,2,2,6,2,1,2,0.5006,2,7,7
2,106,3,1,1,2,6,1,0,1,0.5699,1,7,7
2,107,3,1,2,2,5,1,1,2,0.493,1,7,7
2,108,3,1,1,2,2,1,0,1,0.4983,1,7,7
2,109,3,1,2,1,4,1,0,1,0.5154,2,7,7
2,110,3,1,2,2,6,1,1,2,0.481,2,7,7
2,111,3,1,2,2,2,1,1,2,0.5217,2,7,7
2,112,3,1,1,2,3,1,0,1,0.5035,1,7,7
2,113,3,1,1,1,1,2,1,1,0.5729,2,7,7
2,114,3,1,2,2,5,2,1,2,0.6356,1,7,7
2,115,3,1,2,1,1,1,0,2,0.616,2,7,7
2,116,3,1,1,2,5,2,0,2,0.5206,2,7,7
2,117,3,1,1,1,3,2,1,1,0.4745,2,7,7
2,118,3,1,1,1,4,2,1,1,0.4394,1,7,7
2,119,3,1,2,1,4,2,0,2,0.5035,2,7,7
2,120,3,1,2,1,3,2,0,2,0.5729,1,7,7
2,121,3,1,2,1,1,2,0,2,0.5077,1,7,7
2,122,3,1,1,2,6,2,0,1,0.5013,1,7,7
2,123,3,1,1,1,4,1,1,1,0.4544,2,7,7
2,124,3,1,2,2,1,1,1,2,0.4545,2,7,7
2,125,3,1,2,1,5,2,0,2,0.635,2,7,7
2,126,3,1,1,2,2,2,0,1,0.5278,2,7,7
2,127,3,1,1,2,4,1,0,1,0.4457,1,7,7
2,128,3,1,1,2,3,2,0,1,0.4981,2,7,7
2,129,3,1,1,1,6,2,1,2,0.5034,1,7,7
2,130,3,1,2,1,2,1,0,2,0.5448,2,7,7
2,131,3,1,2,1,2,2,0,2,0.5149,1,7,7
2,132,3,1,1,1,5,1,1,1,0.5202,1,7,7
2,133,3,1,2,1,5,1,0,2,0.5138,2,7,7
2,134,3,1,1,2,4,2,0,1,0.4552,2,7,7
2,135,3,1,2,1,6,2,0,2,0.5834,1,7,7
2,136,3,1,2,2,3,2,1,2,0.5181,2,7,7
2,137,3,1,2,2,1,2,1,2,0.4243,2,7,7
2,138,3,1,1,1,2,1,1,1,0.5524,2,7,7
2,139,3,1,2,2,2,2,1,1,0.4989,1,7,7
2,140,3,1,1,2,1,1,0,1,0.6565,2,7,7
2,141,3,1,1,1,1,1,1,1,0.5729,1,7,7
2,142,3,1,1,1,2,2,1,1,0.4437,1,7,7
2,143,3,1,2,1,6,1,0,2,0.6477,1,7,7
2,144,3,1,1,1,5,2,1,1,0.5758,1,7,7
2,145,4,2,1,2,4,2,0,1,0.616,2,2,0.5357
2,146,4,2,1,2,1,2,0,1,0.5165,2,2,0.6283
2,147,4,2,2,2,1,1,1,2,0.5149,2,2,0.6267
2,148,4,2,1,1,4,1,1,1,0.5016,1,1,0.4213
2,149,4,2,2,2,6,1,1,2,0.5367,2,2,0.5845
2,150,4,2,1,2,3,1,0,1,0.5064,2,2,1.1302
2,151,4,2,2,1,5,1,0,2,0.5749,2,2,0.5587
2,152,4,2,2,1,1,1,0,2,0.6322,1,2,0.7439
2,153,4,2,2,1,6,2,0,2,0.6298,1,1,0.6136
2,154,4,2,2,1,4,1,0,2,0.64,1,2,0.5598
2,155,4,2,2,1,5,2,0,2,0.553,1,1,0.4728
2,156,4,2,2,2,5,2,1,2,0.5764,1,1,0.6242
2,157,4,2,1,1,5,2,1,1,0.499,1,1,0.5468
2,158,4,2,1,1,1,1,1,1,0.5681,2,2,0.5518
2,159,4,2,2,2,3,1,1,2,0.509,2,1,0.5568
2,160,4,2,1,2,4,1,0,1,0.6663,2,2,0.5861
2,161,4,2,2,2,5,1,1,2,0.572,2,2,0.6838
2,162,4,2,1,1,2,1,1,1,0.4998,2,2,0.5476
2,163,4,2,2,2,2,2,1,2,0.6968,1,2,0.6807
2,164,4,2,1,1,1,2,1,1,0.4569,2,2,0.6967
2,165,4,2,1,1,3,1,1,1,0.5128,1,1,0.6245
2,166,4,2,1,2,6,2,0,1,0.4471,2,2,0.751
2,167,4,2,1,1,3,2,1,1,0.4441,1,1,0.5559
2,168,4,2,2,1,4,2,0,2,0.7691,2,2,0.6249
2,169,4,2,2,2,1,2,1,2,0.5756,2,2,0.5593
2,170,4,2,1,2,1,1,0,1,0.5805,2,2,0.6284
2,171,4,2,1,1,6,1,1,1,0.4679,2,2,0.7717
2,172,4,2,2,1,3,1,0,2,0.6333,2,2,0.5531
2,173,4,2,1,1,2,2,1,1,0.4986,1,2,0.5464
2,174,4,2,2,2,4,1,1,2,0.6036,1,1,0.5234
2,175,4,2,2,1,6,1,0,2,0.5851,1,1,0.6329
2,176,4,2,2,2,3,2,1,2,0.5835,1,1,0.5673
2,177,4,2,1,1,4,2,1,1,0.5128,1,1,0.4965
2,178,4,2,1,2,5,2,0,2,0.7686,1,1,0.6563
2,179,4,2,1,2,6,1,0,1,0.5834,1,1,0.5672
2,180,4,2,2,2,4,2,1,2,0.5009,2,1,0.4847
2,181,4,2,2,1,1,2,0,2,0.6125,2,1,0.4043
2,182,4,2,2,1,2,1,0,2,0.5269,2,1,0.4467
2,183,4,2,1,2,2,2,0,1,0.6673,1,1,0.459
2,184,4,2,2,2,6,2,1,2,0.4986,2,1,0.5464
2,185,4,2,2,1,3,2,0,1,0.4756,1,1,0.5935
2,186,4,2,2,1,2,2,0,2,0.5676,1,1,0.6154
2,187,4,2,1,1,6,2,1,1,0.5661,2,2,0.7418
2,188,4,2,1,2,2,1,0,1,0.5748,1,1,0.5586
2,189,4,2,1,2,5,1,0,1,0.4518,1,1,0.6276
2,190,4,2,1,2,3,2,0,1,0.4502,2,1,0.69
2,191,4,2,2,2,2,1,1,2,0.5538,1,2,0.8576
2,192,4,2,1,1,5,1,1,1,0.5449,1,1,0.5927
3,1,1,1,1,2,1,1,0,1,0.7136,1,7,7
3,2,1,1,2,1,3,1,0,2,1.095,1,7,7
3,3,1,1,1,2,1,2,0,1,0.64,2,7,7
3,4,1,1,2,1,1,2,0,1,0.516,2,7,7
3,5,1,1,2,1,6,1,0,2,0.7375,1,7,7
3,6,1,1,2,1,4,2,0,2,0.7048,1,7,7
3,7,1,1,2,2,5,2,1,2,0.6381,2,7,7
3,8,1,1,1,2,6,2,0,1,0.642,1,7,7
3,9,1,1,1,1,3,2,1,1,0.8379,1,7,7
3,10,1,1,2,2,4,2,1,2,0.5779,1,7,7
3,11,1,1,2,2,1,2,1,2,0.8326,2,7,7
3,12,1,1,1,1,6,1,1,1,0.9683,2,7,7
3,13,1,1,2,2,2,1,1,2,0.6428,2,7,7
3,14,1,1,2,1,5,1,0,2,0.6467,1,7,7
3,15,1,1,1,2,5,2,0,1,0.6388,2,7,7
3,16,1,1,2,2,6,1,1,2,0.6428,1,7,7
3,17,1,1,1,1,6,2,1,1,0.7747,2,7,7
3,18,1,1,1,2,2,1,0,1,0.7132,1,7,7
3,19,1,1,2,2,2,2,1,1,1.0946,2,7,7
3,20,1,1,2,1,2,1,0,2,0.6117,1,7,7
3,21,1,1,1,1,1,2,1,1,0.7671,2,7,7
3,22,1,1,2,1,1,1,0,2,0.6416,2,7,7
3,23,1,1,1,1,1,1,1,1,0.6978,2,7,7
3,24,1,1,2,2,5,1,1,2,0.6598,1,7,7
3,25,1,1,2,1,5,2,0,2,0.8204,1,7,7
3,26,1,1,1,1,2,1,1,1,0.7001,2,7,7
3,27,1,1,1,2,3,2,0,1,0.6335,2,7,7
3,28,1,1,2,2,3,1,1,2,0.6373,2,7,7
3,29,1,1,2,2,4,1,1,2,0.5015,2,7,7
3,30,1,1,1,1,3,1,1,1,0.6349,2,7,7
3,31,1,1,2,2,3,2,1,2,0.6388,2,7,7
3,32,1,1,1,2,4,2,0,1,0.6428,1,7,7
3,33,1,1,1,1,5,2,1,1,0.6467,1,7,7
3,34,1,1,1,2,5,1,0,1,0.5109,1,7,7
3,35,1,1,2,1,4,1,0,2,0.6325,2,7,7
3,36,1,1,1,2,3,1,0,1,0.7121,2,7,7
3,37,1,1,2,1,3,2,0,2,0.5814,1,7,7
3,38,1,1,2,1,2,2,0,2,0.7722,1,7,7
3,39,1,1,1,1,4,2,1,1,0.7107,1,7,7
3,40,1,1,1,1,4,1,1,1,0.9523,1,7,7
3,41,1,1,1,1,5,1,1,1,0.5275,1,7,7
3,42,1,1,1,2,2,2,0,1,0.6255,1,7,7
3,43,1,1,1,2,4,1,0,1,0.7694,2,7,7
3,44,1,1,2,1,6,2,0,2,0.568,2,7,7
3,45,1,1,1,2,6,1,0,1,0.7587,1,7,7
3,46,1,1,2,2,1,1,1,2,0.773,2,7,7
3,47,1,1,1,1,2,2,1,1,0.6475,2,7,7
3,48,1,1,2,2,6,2,1,2,0.7206,1,7,7
3,49,2,2,1,1,2,1,1,1,0.6756,2,2,0.5953
3,50,2,2,2,1,4,1,0,2,0.7497,2,2,0.8615
3,51,2,2,2,1,5,1,0,2,0.7571,1,1,0.6768
3,52,2,2,1,2,2,1,0,1,0.7084,2,2,1.4602
3,53,2,2,2,1,3,2,0,2,0.7675,2,2,1.1352
3,54,2,2,1,1,2,2,1,1,0.7079,2,2,0.7557
3,55,2,2,2,2,3,1,1,2,0.9491,2,2,1.2529
3,56,2,2,1,1,4,2,1,1,0.8242,1,1,0.6159
3,57,2,2,1,2,5,1,0,1,0.6476,2,2,0.5673
3,58,2,2,2,1,1,1,0,2,0.7688,1,1,0.6246
3,59,2,2,2,1,6,1,0,2,0.7032,2,1,0.559
3,60,2,2,2,2,5,1,1,2,0.6162,2,1,0.536
3,61,2,2,1,2,5,2,0,1,0.8088,1,1,0.8565
3,62,2,2,2,2,5,2,1,2,0.6646,1,2,0.8403
3,63,2,2,1,1,1,1,1,1,1.3714,2,1,1.3552
3,64,2,2,2,1,2,1,0,2,0.6646,1,1,0.5204
3,65,2,2,2,1,2,2,0,1,1.1411,1,1,0.6523
3,66,2,2,2,2,4,2,1,2,0.7714,1,1,0.6272
3,67,2,2,2,2,2,1,1,2,0.8978,2,1,0.7537
3,68,2,2,2,1,1,2,0,2,0.6748,1,1,0.6586
3,69,2,2,1,2,6,2,0,1,0.6902,1,1,0.674
3,70,2,2,1,2,3,1,0,1,0.8858,1,1,0.8056
3,71,2,2,1,1,1,2,1,1,0.6319,1,1,1.3838
3,72,2,2,1,2,4,2,0,1,0.7093,2,1,1.9731
3,73,2,2,2,1,3,1,0,2,0.7464,1,1,0.7942
3,74,2,2,1,2,6,1,0,1,0.6441,2,2,0.7559
3,75,2,2,1,2,4,1,0,1,0.7574,1,1,0.6131
3,76,2,2,1,1,6,2,1,1,0.6277,2,1,0.4835
3,77,2,2,2,2,1,1,1,2,0.8203,2,2,1.3161
3,78,2,2,1,1,4,1,1,1,0.6365,1,1,0.6203
3,79,2,2,1,2,3,2,0,1,0.6989,2,2,0.5547
3,80,2,2,2,1,5,2,0,2,0.6399,2,2,0.6237
3,81,2,2,2,2,2,2,1,2,0.8186,1,1,0.6104
3,82,2,2,1,2,2,2,0,1,0.6485,2,2,0.5683
3,83,2,2,2,2,3,2,1,2,0.694,2,2,0.5498
3,84,2,2,2,2,4,1,1,2,0.588,2,2,0.7637
3,85,2,2,2,2,1,2,1,2,0.8174,2,2,0.6092
3,86,2,2,2,1,6,2,0,2,0.6996,2,2,0.5554
3,87,2,2,1,1,5,2,1,1,0.6928,2,2,0.5486
3,88,2,2,1,1,3,1,1,1,0.8376,1,1,0.5014
3,89,2,2,1,2,1,2,0,1,0.6454,2,1,0.5652
3,90,2,2,1,1,5,1,1,1,0.6747,1,1,0.5945
3,91,2,2,1,2,1,1,0,1,0.6966,1,1,0.4244
3,92,2,2,1,1,6,1,1,1,0.592,1,1,0.5758
3,93,2,2,2,2,6,2,1,2,0.6897,1,1,0.5455
3,94,2,2,1,1,3,2,1,1,0.6307,1,1,0.6145
3,95,2,2,2,2,6,1,1,2,0.7049,1,1,0.5607
3,96,2,2,2,1,4,2,0,2,0.6746,1,1,0.5304
3,97,3,2,1,1,2,2,1,1,0.7321,1,1,0.6518
3,98,3,2,2,2,1,2,1,2,0.6952,2,2,0.6789
3,99,3,2,1,2,5,1,0,1,0.6987,1,1,0.7465
3,100,3,2,2,1,5,1,0,2,0.684,2,2,0.6037
3,101,3,2,2,1,2,2,0,2,0.6941,1,1,0.8699
3,102,3,2,2,1,6,1,0,2,0.6544,1,1,0.8302
3,103,3,2,1,1,5,2,1,1,0.7728,1,1,0.5006
3,104,3,2,1,1,1,1,1,1,0.7086,1,2,0.6284
3,105,3,2,2,2,1,1,1,2,0.6791,2,2,0.5348
3,106,3,2,2,1,1,2,0,2,0.6436,1,1,0.6274
3,107,3,2,1,2,4,1,0,1,0.8222,2,2,1.51
3,108,3,2,2,1,2,1,0,2,0.7232,2,2,0.6429
3,109,3,2,2,1,3,1,0,2,0.634,2,2,0.6818
3,110,3,2,2,2,5,1,1,2,0.5619,2,1,0.5456
3,111,3,2,2,2,2,1,1,2,0.6147,1,1,0.4704
3,112,3,2,1,2,4,2,0,1,0.638,1,1,0.6218
3,113,3,2,1,1,4,1,1,1,0.5202,2,2,1.016
3,114,3,2,2,2,2,2,1,2,0.7703,2,1,0.8821
3,115,3,2,2,2,4,2,1,2,0.6621,1,1,0.5179
3,116,3,2,1,1,2,1,1,1,0.8186,1,1,0.6104
3,117,3,2,2,1,5,2,0,2,0.642,1,1,0.5618
3,118,3,2,2,1,3,2,0,2,0.7633,1,1,0.491
3,119,3,2,1,1,1,2,1,1,0.588,2,2,1.0838
3,120,3,2,1,1,6,1,1,1,0.6278,1,1,0.5476
3,121,3,2,2,2,6,1,1,2,0.6328,1,1,0.9366
3,122,3,2,1,2,5,2,0,1,0.6335,2,2,0.6173
3,123,3,2,1,1,3,1,1,1,0.6437,1,2,0.8195
3,124,3,2,1,2,2,2,0,1,0.5539,2,2,0.9217
3,125,3,2,1,2,1,1,0,1,0.5782,2,2,0.5619
3,126,3,2,2,1,4,1,0,2,0.7112,2,2,1.1429
3,127,3,2,1,2,6,2,0,1,0.6399,1,1,0.5597
3,128,3,2,2,1,6,2,0,2,1.162,2,2,1.3378
3,129,3,2,1,2,1,2,0,1,0.6347,2,2,0.6825
3,130,3,2,1,1,3,2,1,1,0.6266,2,2,0.6743
3,131,3,2,1,2,2,1,0,1,0.6941,1,1,0.5499
3,132,3,2,1,1,5,1,1,1,0.5998,2,1,0.9036
3,133,3,2,2,2,3,1,1,2,1.0036,1,1,0.7314
3,134,3,2,2,2,4,1,1,2,0.7042,2,2,1.2
3,135,3,2,2,2,6,2,1,2,0.894,2,2,0.6218
3,136,3,2,2,2,5,2,1,2,0.6364,1,1,0.6202
3,137,3,2,2,1,1,1,0,2,0.6466,1,1,0.7584
3,138,3,2,1,1,6,2,1,1,0.7716,1,1,0.5634
3,139,3,2,1,1,4,2,1,1,0.834,2,2,0.6258
3,140,3,2,2,1,4,2,0,2,0.6927,1,1,0.8045
3,141,3,2,1,2,6,1,0,1,0.7588,2,2,0.6786
3,142,3,2,1,2,3,1,0,1,0.6984,2,2,0.9382
3,143,3,2,1,2,3,2,0,1,0.6639,2,2,0.7756
3,144,3,2,2,2,3,2,1,2,0.6895,1,1,0.6733
3,145,4,1,1,1,1,2,1,1,0.7272,2,7,7
3,146,4,1,2,2,6,1,1,2,0.7128,2,7,7
3,147,4,1,1,2,5,1,0,1,0.5821,2,7,7
3,148,4,1,1,2,3,1,0,1,0.8368,2,7,7
3,149,4,1,2,2,5,1,1,2,0.5128,1,7,7
3,150,4,1,1,2,2,2,0,1,0.6461,2,7,7
3,151,4,1,2,2,1,1,1,2,0.7545,1,7,7
3,152,4,1,2,2,1,2,1,2,0.629,2,7,7
3,153,4,1,1,2,2,1,0,1,0.6329,2,7,7
3,154,4,1,1,2,1,2,0,1,0.5611,1,7,7
3,155,4,1,2,1,2,1,0,2,0.6356,1,7,7
3,156,4,1,1,2,1,1,0,1,0.5638,1,7,7
3,157,4,1,2,2,6,2,1,2,0.6383,2,7,7
3,158,4,1,1,1,3,1,1,1,0.6305,1,7,7
3,159,4,1,2,2,4,2,1,2,0.5822,2,7,7
3,160,4,1,2,1,6,1,0,2,0.7089,1,7,7
3,161,4,1,1,2,4,1,0,1,0.6423,2,7,7
3,162,4,1,2,2,2,1,1,2,0.7102,2,7,7
3,163,4,1,1,2,6,2,0,1,0.6318,2,7,7
3,164,4,1,2,1,3,1,0,2,0.6357,2,7,7
3,165,4,1,2,2,4,1,1,2,0.4999,2,7,7
3,166,4,1,2,1,1,1,0,2,0.6972,1,7,7
3,167,4,1,2,1,1,2,0,2,0.6828,1,7,7
3,168,4,1,2,1,4,1,0,2,0.6279,2,7,7
3,169,4,1,1,1,4,2,1,1,0.6436,2,7,7
3,170,4,1,1,1,2,1,1,1,0.7115,2,7,7
3,171,4,1,1,2,5,2,0,1,0.5809,2,7,7
3,172,4,1,1,1,6,1,1,1,0.5796,1,7,7
3,173,4,1,1,1,2,2,1,1,0.8866,1,7,7
3,174,4,1,1,1,4,1,1,1,0.5796,1,7,7
3,175,4,1,2,1,6,2,0,2,0.5664,1,7,7
3,176,4,1,2,2,2,2,1,2,0.8852,1,7,7
3,177,4,1,2,2,3,1,1,2,0.5545,1,7,7
3,178,4,1,2,1,5,2,0,2,0.5533,2,7,7
3,179,4,1,1,2,3,2,0,1,0.6278,1,7,7
3,180,4,1,2,1,3,2,0,2,0.5795,2,7,7
3,181,4,1,1,1,6,2,1,1,0.6423,1,7,7
3,182,4,1,1,1,5,2,1,1,0.7742,1,7,7
3,183,4,1,2,1,2,2,0,2,0.6487,1,7,7
3,184,4,1,2,2,3,2,1,2,0.6409,1,7,7
3,185,4,1,1,1,1,1,1,1,0.6448,1,7,7
3,186,4,1,2,1,5,1,0,2,0.6369,1,7,7
3,187,4,1,1,1,3,2,1,1,0.5938,2,7,7
3,188,4,1,2,1,4,2,0,2,0.569,1,7,7
3,189,4,1,1,2,6,1,0,1,0.7076,1,7,7
3,190,4,1,1,1,5,1,1,1,0.6291,2,7,7
3,191,4,1,1,2,4,2,0,1,0.5691,2,7,7
3,192,4,1,2,2,5,2,1,2,0.5796,2,7,7
4,1,1,2,2,2,2,2,1,1,0.6658,2,2,0.7874
4,2,1,2,2,2,4,2,1,7,7,2,1,1.267
4,3,1,2,2,1,6,1,0,2,1.1707,2,2,0.8985
4,4,1,2,2,1,3,2,0,2,1.1545,2,2,0.8823
4,5,1,2,1,2,3,2,0,1,0.8183,2,2,0.802
4,6,1,2,2,1,2,1,0,2,0.8844,1,2,0.9322
4,7,1,2,1,2,1,1,0,2,0.7527,1,1,0.8442
4,8,1,2,2,2,4,1,1,2,0.903,1,1,1.0148
4,9,1,2,1,2,3,1,0,1,0.7692,1,1,0.8809
4,10,1,2,2,1,2,2,0,2,0.7007,2,2,1.1325
4,11,1,2,1,1,6,2,1,1,0.8332,1,1,0.689
4,12,1,2,1,1,3,2,1,1,0.8368,2,2,1.9726
4,13,1,2,1,2,2,1,0,2,0.7099,1,1,1.1044
4,14,1,2,2,1,4,2,0,1,0.7124,2,1,1.2349
4,15,1,2,2,1,5,2,0,2,0.8775,2,1,0.9893
4,16,1,2,2,2,1,2,1,2,0.8032,1,1,0.7229
4,17,1,2,1,1,5,1,1,1,0.6957,2,1,0.8075
4,18,1,2,1,1,5,2,1,1,0.6699,1,1,1.2936
4,19,1,2,1,2,6,2,0,1,0.9459,2,1,0.6736
4,20,1,2,2,1,4,1,0,7,7,2,2,0.697
4,21,1,2,2,1,6,2,0,2,0.7691,1,1,0.8168
4,22,1,2,2,2,2,1,1,2,0.6432,1,1,0.755
4,23,1,2,1,1,2,1,1,2,0.6402,2,1,0.8493
4,24,1,2,2,2,6,2,1,2,0.7404,2,1,0.5962
4,25,1,2,1,1,2,2,1,1,0.7344,1,1,0.7821
4,26,1,2,1,1,6,1,1,1,0.8241,1,1,0.6798
4,27,1,2,1,1,1,2,1,2,0.6356,1,1,0.5888
4,28,1,2,1,1,4,2,1,1,0.8946,1,1,0.8145
4,29,1,2,1,2,2,2,0,1,0.7689,2,2,0.7526
4,30,1,2,1,2,1,2,0,2,0.8298,1,1,0.6587
4,31,1,2,2,1,1,2,0,2,0.7543,2,2,0.738
4,32,1,2,1,2,5,2,0,1,0.8271,2,1,0.7468
4,33,1,2,1,2,5,1,0,1,0.9358,2,1,0.5996
4,34,1,2,2,2,5,2,1,2,1.046,2,2,0.9658
4,35,1,2,1,2,4,1,0,1,0.7319,1,1,0.5876
4,36,1,2,1,1,1,1,1,1,0.7656,1,1,0.6854
4,37,1,2,2,2,3,2,1,2,0.7052,1,2,1.2649
4,38,1,2,1,2,6,1,0,1,0.6162,1,1,0.856
4,39,1,2,2,1,1,1,0,2,0.7111,2,2,0.8229
4,40,1,2,2,2,1,1,1,2,0.6897,2,1,1.0575
4,41,1,2,2,1,5,1,0,2,0.8648,1,1,0.7846
4,42,1,2,2,2,6,1,1,2,0.6462,1,1,0.822
4,43,1,2,1,2,4,2,0,2,0.8926,1,1,0.9187
4,44,1,2,1,1,4,1,1,2,0.7319,1,2,1.6789
4,45,1,2,1,1,3,1,1,7,7,1,1,0.8184
4,46,1,2,2,2,5,1,1,2,0.9007,2,2,1.0765
4,47,1,2,2,1,3,1,0,2,0.836,2,2,0.8838
4,48,1,2,2,2,3,1,1,2,0.6918,2,2,1.4436
4,49,2,1,2,2,5,2,1,2,0.7487,2,7,7
4,50,2,1,1,2,5,2,0,1,0.763,1,7,7
4,51,2,1,1,2,2,1,0,1,0.8295,1,7,7
4,52,2,1,2,2,6,2,1,2,0.5172,1,7,7
4,53,2,1,2,2,5,1,1,2,0.4467,1,7,7
4,54,2,1,1,1,6,1,1,1,0.4992,1,7,7
4,55,2,1,2,1,2,1,0,2,0.5803,1,7,7
4,56,2,1,1,1,2,2,1,1,0.4799,2,7,7
4,57,2,1,2,2,3,1,1,2,0.6367,2,7,7
4,58,2,1,2,1,1,2,0,2,0.6406,1,7,7
4,59,2,1,2,1,2,2,0,2,0.5166,2,7,7
4,60,2,1,2,2,6,1,1,2,0.5101,2,7,7
4,61,2,1,2,1,4,1,0,2,0.5795,2,7,7
4,62,2,1,2,1,6,1,0,2,0.7062,1,7,7
4,63,2,1,1,2,1,1,0,1,0.4358,1,7,7
4,64,2,1,2,1,4,2,0,2,0.564,2,7,7
4,65,2,1,2,1,3,1,0,2,0.6268,2,7,7
4,66,2,1,2,2,1,2,1,2,0.5027,2,7,7
4,67,2,1,1,1,3,2,1,1,0.6478,1,7,7
4,68,2,1,1,1,5,2,1,1,0.7039,1,7,7
4,69,2,1,2,2,2,2,1,2,0.6491,1,7,7
4,70,2,1,2,2,2,1,1,2,0.5772,1,7,7
4,71,2,1,1,2,4,1,0,1,0.64,1,7,7
4,72,2,1,1,1,6,2,1,1,0.5159,2,7,7
4,73,2,1,1,2,5,1,0,1,0.5095,2,7,7
4,74,2,1,2,2,3,2,1,2,0.5031,2,7,7
4,75,2,1,2,1,5,2,0,2,0.5842,1,7,7
4,76,2,1,1,2,3,2,0,1,0.647,2,7,7
4,77,2,1,1,2,3,1,0,1,0.7031,2,7,7
4,78,2,1,1,2,2,2,0,1,0.4562,1,7,7
4,79,2,1,1,1,2,1,1,1,0.5086,2,7,7
4,80,2,1,2,2,1,1,1,2,0.5662,1,7,7
4,81,2,1,2,2,4,1,1,2,0.629,1,7,7
4,82,2,1,1,1,1,1,1,1,0.5807,2,7,7
4,83,2,1,1,1,4,1,1,1,0.5155,2,7,7
4,84,2,1,2,2,4,2,1,2,0.5208,2,7,7
4,85,2,1,2,1,1,1,0,2,0.5144,2,7,7
4,86,2,1,1,2,4,2,0,1,0.636,2,7,7
4,87,2,1,2,1,6,2,0,1,0.5642,1,7,7
4,88,2,1,1,1,1,2,1,1,0.663,2,7,7
4,89,2,1,2,1,3,2,0,2,0.6316,2,7,7
4,90,2,1,1,2,6,1,0,1,0.7113,1,7,7
4,91,2,1,1,1,5,1,1,1,0.5806,2,7,7
4,92,2,1,1,1,4,2,1,1,0.5155,1,7,7
4,93,2,1,1,2,1,2,0,1,0.5207,1,7,7
4,94,2,1,1,2,6,2,0,1,0.5312,1,7,7
4,95,2,1,2,1,5,1,0,2,0.5535,1,7,7
4,96,2,1,1,1,3,1,1,1,0.564,2,7,7
4,97,3,1,1,2,1,2,0,1,0.7475,1,7,7
4,98,3,1,1,2,1,1,0,1,0.4418,2,7,7
4,99,3,1,1,2,6,1,0,1,0.4537,1,7,7
4,100,3,1,2,2,4,1,1,2,0.582,1,7,7
4,101,3,1,1,2,2,2,0,1,0.5167,1,7,7
4,102,3,1,1,1,1,2,1,1,0.4345,2,7,7
4,103,3,1,2,2,4,2,1,2,0.5627,1,7,7
4,104,3,1,2,2,5,2,1,2,0.4452,2,7,7
4,105,3,1,1,2,4,2,0,1,0.4572,2,7,7
4,106,3,1,1,2,5,1,0,1,0.4574,2,7,7
4,107,3,1,1,1,2,1,1,1,0.7017,2,7,7
4,108,3,1,1,1,3,1,1,1,0.5829,1,7,7
4,109,3,1,1,1,4,2,1,1,0.4419,2,7,7
4,110,3,1,1,1,5,1,1,1,0.4538,1,7,7
4,111,3,1,1,1,3,2,1,1,0.4423,1,7,7
4,112,3,1,1,2,3,1,0,1,0.5064,2,7,7
4,113,3,1,2,1,4,2,0,2,0.6398,1,7,7
4,114,3,1,1,2,2,1,0,1,0.5797,2,7,7
4,115,3,1,2,2,1,1,1,2,0.4505,2,7,7
4,116,3,1,1,2,6,2,0,1,0.5787,2,7,7
4,117,3,1,2,2,2,2,1,2,0.4494,2,7,7
4,118,3,1,1,2,3,2,0,1,0.5018,1,7,7
4,119,3,1,2,2,6,1,1,2,0.5829,2,7,7
4,120,3,1,1,2,4,1,0,1,0.5582,2,7,7
4,121,3,1,2,1,1,1,0,2,0.6967,1,7,7
4,122,3,1,2,2,6,2,1,2,0.63,1,7,7
4,123,3,1,2,2,2,1,1,2,0.506,2,7,7
4,124,3,1,1,1,6,1,1,1,0.5114,1,7,7
4,125,3,1,1,2,5,2,0,1,0.5689,1,7,7
4,126,3,1,1,1,1,1,1,1,0.7074,2,7,7
4,127,3,1,2,1,5,2,0,2,0.6408,2,7,7
4,128,3,1,2,1,3,1,0,2,0.6447,2,7,7
4,129,3,1,2,1,6,2,0,2,0.5728,1,7,7
4,130,3,1,2,2,3,1,1,2,0.6996,1,7,7
4,131,3,1,1,1,4,1,1,1,0.697,2,7,7
4,132,3,1,2,1,4,1,0,2,0.6303,2,7,7
4,133,3,1,2,2,1,2,1,2,0.5702,1,7,7
4,134,3,1,2,1,2,1,0,2,0.569,1,7,7
4,135,3,1,2,1,3,2,0,2,0.492,2,7,7
4,136,3,1,1,1,2,2,1,1,0.4738,1,7,7
4,137,3,1,2,2,5,1,1,2,0.5785,2,7,7
4,138,3,1,1,1,6,2,1,1,0.5132,1,7,7
4,139,3,1,2,1,2,2,0,2,0.5186,2,7,7
4,140,3,1,1,1,5,2,1,1,0.4482,1,7,7
4,141,3,1,2,2,3,2,1,2,0.5123,1,7,7
4,142,3,1,2,1,5,1,0,2,0.5177,1,7,7
4,143,3,1,2,1,1,2,0,2,0.6275,1,7,7
4,144,3,1,2,1,6,1,0,2,0.7712,2,7,7
4,145,4,2,2,1,2,2,0,2,0.9472,1,1,0.6748
4,146,4,2,1,2,2,2,0,1,0.7586,1,1,0.6144
4,147,4,2,2,2,2,1,1,2,0.693,2,2,0.6768
4,148,4,2,2,1,1,2,0,2,0.7724,2,2,0.6922
4,149,4,2,2,1,1,1,0,2,0.6479,1,1,0.4398
4,150,4,2,2,1,6,2,0,2,0.6426,2,2,1.2024
4,151,4,2,1,1,6,1,1,1,0.9605,1,1,0.6883
4,152,4,2,2,2,4,1,1,2,0.6441,1,1,0.6279
4,153,4,2,2,2,1,1,1,2,0.6307,1,1,0.6785
4,154,4,2,2,1,6,1,0,2,0.8381,2,1,1.0779
4,155,4,2,2,2,2,2,1,2,0.6983,2,2,0.6821
4,156,4,2,2,1,5,2,0,2,0.8181,1,1,0.802
4,157,4,2,1,1,2,1,1,1,0.9601,2,1,1.1998
4,158,4,2,2,2,4,2,1,2,0.6622,1,1,0.71
4,159,4,2,1,2,1,2,0,1,0.6709,2,2,0.8468
4,160,4,2,1,2,1,1,0,1,0.7658,1,2,0.8136
4,161,4,2,2,1,2,1,0,2,0.804,2,2,0.7238
4,162,4,2,1,2,5,1,0,1,0.7723,2,2,0.7561
4,163,4,2,2,1,4,2,0,2,0.5457,1,1,0.7855
4,164,4,2,1,1,4,1,1,1,0.7752,2,1,0.9509
4,165,4,2,2,2,1,2,1,2,0.7361,1,1,0.9119
4,166,4,2,1,2,5,2,0,1,0.7604,1,1,0.6802
4,167,4,2,1,2,4,1,0,1,1.0317,2,2,0.9515
4,168,4,2,2,1,5,1,0,2,0.8574,2,2,0.5212
4,169,4,2,1,1,1,1,1,2,0.63,1,1,0.7869
4,170,4,2,2,2,5,1,1,2,0.7647,1,1,0.7485
4,171,4,2,1,2,2,1,0,1,0.7735,1,1,0.7573
4,172,4,2,2,2,3,2,1,2,0.7705,2,2,0.7543
4,173,4,2,2,2,3,1,1,2,0.5115,1,2,0.7512
4,174,4,2,1,2,3,1,0,1,0.7482,2,2,0.732
4,175,4,2,1,1,4,2,1,2,0.5768,2,2,1.4207
4,176,4,2,1,1,1,2,1,1,0.775,1,1,0.7588
4,177,4,2,2,2,5,2,1,1,0.7249,1,1,0.9157
4,178,4,2,1,2,3,2,0,1,0.7759,1,2,0.8237
4,179,4,2,1,1,3,2,1,1,0.8024,1,1,1.1701
4,180,4,2,1,1,5,2,1,2,0.7715,2,2,1.5552
4,181,4,2,2,1,3,2,0,1,0.7213,2,2,1.296
4,182,4,2,1,2,4,2,0,1,0.896,1,1,0.6878
4,183,4,2,2,2,6,2,1,2,0.5156,2,2,0.6914
4,184,4,2,1,1,6,2,1,1,0.8509,2,1,1.5387
4,185,4,2,1,1,5,1,1,1,0.6834,2,2,0.9871
4,186,4,2,1,1,2,2,1,1,1.085,1,2,0.8768
4,187,4,2,2,1,4,1,0,2,0.9364,2,2,0.7922
4,188,4,2,1,1,3,1,1,1,0.8223,2,1,2.2781
4,189,4,2,1,2,6,2,0,1,0.8669,1,1,0.7867
4,190,4,2,1,2,6,1,0,1,1.2582,2,1,1.242
4,191,4,2,2,1,3,1,0,2,0.7971,2,2,0.7169
4,192,4,2,2,2,6,1,1,2,0.9456,1,1,0.7374
5,1,1,1,2,2,2,2,1,2,0.6676,2,7,7
5,2,1,1,2,2,4,2,1,2,0.5487,2,7,7
5,3,1,1,2,1,6,1,0,2,0.891,2,7,7
5,4,1,1,2,1,3,2,0,2,0.648,2,7,7
5,5,1,1,1,2,3,2,0,1,0.576,2,7,7
5,6,1,1,2,1,2,1,0,1,0.6388,1,7,7
5,7,1,1,1,2,1,1,0,1,0.7545,1,7,7
5,8,1,1,2,2,4,1,1,2,0.5532,1,7,7
5,9,1,1,1,2,3,1,0,1,0.5115,1,7,7
5,10,1,1,2,1,2,2,0,2,0.6449,2,7,7
5,11,1,1,1,1,6,2,1,1,0.5208,1,7,7
5,12,1,1,1,1,3,2,1,1,0.5263,2,7,7
5,13,1,1,1,2,2,1,0,1,0.4675,1,7,7
5,14,1,1,2,1,4,2,0,2,0.5957,2,7,7
5,15,1,1,2,1,5,2,0,2,0.5356,2,7,7
5,16,1,1,2,2,1,2,1,2,0.5174,1,7,7
5,17,1,1,1,1,5,1,1,1,0.4992,2,7,7
5,18,1,1,1,1,5,2,1,1,0.4524,1,7,7
5,19,1,1,1,2,6,2,0,1,0.5166,2,7,7
5,20,1,1,2,1,4,1,0,2,0.5859,2,7,7
5,21,1,1,2,1,6,2,0,2,0.4044,1,7,7
5,22,1,1,2,2,2,1,1,2,0.5915,1,7,7
5,23,1,1,1,1,2,1,1,1,0.5314,2,7,7
5,24,1,1,2,2,6,2,1,2,0.5772,2,7,7
5,25,1,1,1,1,2,2,1,1,0.512,1,7,7
5,26,1,1,1,1,6,1,1,1,0.7903,1,7,7
5,27,1,1,1,1,1,2,1,1,0.5132,1,7,7
5,28,1,1,1,1,4,2,1,1,0.4546,1,7,7
5,29,1,1,1,2,2,2,0,1,0.4548,2,7,7
5,30,1,1,1,2,1,2,0,1,0.5308,1,7,7
5,31,1,1,2,1,1,2,0,2,0.5126,2,7,7
5,32,1,1,1,2,5,2,0,1,0.5113,2,7,7
5,33,1,1,1,2,5,1,0,1,0.5167,2,7,7
5,34,1,1,2,2,5,2,1,2,0.4462,2,7,7
5,35,1,1,1,2,4,1,0,1,0.5862,1,7,7
5,36,1,1,1,1,1,1,1,1,0.585,1,7,7
5,37,1,1,2,2,3,2,1,2,0.5197,1,7,7
5,38,1,1,1,2,6,1,0,1,0.5773,1,7,7
5,39,1,1,2,1,1,1,0,2,0.6401,2,7,7
5,40,1,1,2,2,1,1,1,2,0.5042,2,7,7
5,41,1,1,2,1,5,1,0,1,0.5096,1,7,7
5,42,1,1,2,2,6,1,1,2,0.551,1,7,7
5,43,1,1,1,2,4,2,0,1,0.5968,1,7,7
5,44,1,1,1,1,4,1,1,1,0.5956,1,7,7
5,45,1,1,1,1,3,1,1,1,0.4545,1,7,7
5,46,1,1,2,2,5,1,1,2,0.5827,2,7,7
5,47,1,1,2,1,3,1,0,2,0.622,2,7,7
5,48,1,1,2,2,3,1,1,2,0.5096,2,7,7
5,49,2,2,2,2,5,2,1,2,0.7561,2,2,0.6759
5,50,2,2,1,2,5,2,0,1,0.7714,1,1,0.7552
5,51,2,2,1,2,2,1,0,1,0.7684,1,1,0.5602
5,52,2,2,2,2,6,2,1,2,0.5814,1,1,0.5012
5,53,2,2,2,2,5,1,1,2,0.657,1,1,0.4488
5,54,2,2,1,1,6,1,1,1,0.7679,1,1,0.4317
5,55,2,2,2,1,2,1,0,2,0.7626,1,1,0.8744
5,56,2,2,1,1,2,2,1,1,0.7699,2,2,0.8177
5,57,2,2,2,2,3,1,1,2,0.7081,2,2,1.3959
5,58,2,2,2,1,1,2,0,2,0.7215,1,2,0.6412
5,59,2,2,2,1,2,2,0,2,0.8199,2,2,0.5477
5,60,2,2,2,2,6,1,1,2,0.7727,2,2,0.6284
5,61,2,2,2,1,4,1,0,2,0.6313,2,2,0.6151
5,62,2,2,2,1,6,1,0,2,0.5775,1,1,0.6893
5,63,2,2,1,2,1,1,0,1,0.6451,1,1,0.6928
5,64,2,2,2,1,4,2,0,2,0.7766,2,2,0.5044
5,65,2,2,2,1,3,1,0,2,0.6485,2,2,0.6323
5,66,2,2,2,2,1,2,1,2,0.5829,2,1,0.6307
5,67,2,2,1,1,3,2,1,1,0.7454,1,1,0.4731
5,68,2,2,1,1,5,2,1,1,0.7687,1,1,0.6245
5,69,2,2,2,2,2,2,1,2,0.592,1,2,0.6399
5,70,2,2,2,2,2,1,1,2,0.7428,1,1,0.4705
5,71,2,2,1,2,4,1,0,1,0.591,1,1,0.5108
5,72,2,2,1,1,6,2,1,1,0.5908,2,1,0.5746
5,73,2,2,1,2,5,1,0,1,0.5561,2,1,0.54
5,74,2,2,2,2,3,2,1,2,0.8767,2,2,0.6044
5,75,2,2,2,1,5,2,0,2,0.7184,1,1,0.4461
5,76,2,2,1,2,3,2,0,1,0.6255,2,2,0.4813
5,77,2,2,1,2,3,1,0,1,0.5731,2,2,0.4929
5,78,2,2,1,2,2,2,0,1,0.6252,1,1,0.481
5,79,2,2,1,1,2,1,1,1,0.5728,2,2,0.5566
5,80,2,2,2,2,1,1,1,2,0.8625,1,1,0.6543
5,81,2,2,2,2,4,1,1,2,0.7734,1,1,0.4372
5,82,2,2,1,1,1,1,1,1,0.576,2,2,0.7519
5,83,2,2,1,1,4,1,1,1,0.509,2,2,0.8128
5,84,2,2,2,2,4,2,1,2,0.5921,2,2,0.5119
5,85,2,2,2,1,1,1,0,2,0.7082,2,1,0.436
5,86,2,2,1,2,4,2,0,1,0.7271,2,1,0.7749
5,87,2,2,2,1,6,2,0,2,0.8006,1,1,0.7204
5,88,2,2,1,1,1,2,1,1,0.5769,2,2,0.4966
5,89,2,2,2,1,3,2,0,2,0.7047,2,2,0.6243
5,90,2,2,1,2,6,1,0,1,0.6391,1,1,0.6869
5,91,2,2,1,1,5,1,1,1,0.6545,2,1,0.5103
5,92,2,2,1,1,4,2,1,1,0.7713,1,1,0.499
5,93,2,2,1,2,1,2,0,1,0.5791,1,1,0.6269
5,94,2,2,1,2,6,2,0,1,0.6062,1,1,0.462
5,95,2,2,2,1,5,1,0,1,0.5773,1,1,0.5893
5,96,2,2,1,1,3,1,1,1,0.7032,2,2,0.623
5,97,3,2,1,2,1,2,0,1,0.7159,1,1,0.5077
5,98,3,2,1,2,1,1,0,1,0.64,2,1,1.3278
5,99,3,2,1,2,6,1,0,1,0.6842,1,1,0.54
5,100,3,2,2,2,4,1,1,2,0.701,1,1,0.4929
5,101,3,2,1,2,2,2,0,1,0.7648,1,1,0.4926
5,102,3,2,1,1,1,2,1,1,0.5256,2,2,0.5094
5,103,3,2,2,2,4,2,1,2,0.7697,1,1,0.6895
5,104,3,2,2,2,5,2,1,2,0.6453,2,2,0.5651
5,105,3,2,1,2,4,2,0,1,0.7025,2,2,0.8783
5,106,3,2,1,2,5,1,0,1,0.5936,2,2,0.6414
5,107,3,2,1,1,2,1,1,1,0.6965,2,2,0.6803
5,108,3,2,1,1,3,1,1,1,0.6008,1,1,0.7766
5,109,3,2,1,1,4,2,1,1,0.6265,2,2,0.8662
5,110,3,2,1,1,5,1,1,1,0.5816,1,2,0.8213
5,111,3,2,1,1,3,2,1,1,0.5557,1,1,0.5395
5,112,3,2,1,2,3,1,0,1,0.5843,2,2,0.504
5,113,3,2,2,1,4,2,0,2,0.6599,1,1,0.5797
5,114,3,2,1,2,2,1,0,1,0.5891,2,2,0.6369
5,115,3,2,2,2,1,1,1,2,0.7207,2,2,0.5765
5,116,3,2,1,2,6,2,0,1,0.5741,2,1,0.622
5,117,3,2,2,2,2,2,1,2,0.5851,2,2,0.5049
5,118,3,2,1,2,3,2,0,1,0.5731,1,1,0.5569
5,119,3,2,2,2,6,1,1,2,0.6422,2,2,0.5619
5,120,3,2,1,2,4,1,0,1,0.6354,2,2,0.5552
5,121,3,2,2,1,1,1,0,1,0.6286,1,1,0.4655
5,122,3,2,2,2,6,2,1,2,0.6449,1,1,0.6287
5,123,3,2,2,2,2,1,1,2,0.6433,2,2,0.4991
5,124,3,2,1,1,6,1,1,1,0.7071,1,1,0.9469
5,125,3,2,1,2,5,2,0,1,0.6439,1,1,0.5636
5,126,3,2,1,1,1,1,1,1,0.7011,2,1,0.4289
5,127,3,2,2,1,5,2,0,2,0.6795,2,2,0.5993
5,128,3,2,2,1,3,1,0,2,0.742,2,2,0.6618
5,129,3,2,2,1,6,2,0,2,0.6176,1,1,0.6013
5,130,3,2,2,2,3,1,1,2,0.5806,1,1,0.4364
5,131,3,2,1,1,4,1,1,1,0.5635,2,2,0.4833
5,132,3,2,2,1,4,1,0,2,0.6156,2,2,0.9194
5,133,3,2,2,2,1,2,1,2,0.5759,1,1,0.6877
5,134,3,2,2,1,2,1,0,2,0.6435,1,1,0.4352
5,135,3,2,2,1,3,2,0,2,0.5741,2,1,0.6219
5,136,3,2,1,1,2,2,1,1,0.6843,1,1,0.4761
5,137,3,2,2,2,5,1,1,2,0.5797,2,1,0.5635
5,138,3,2,1,1,6,2,1,1,0.673,1,1,0.8488
5,139,3,2,2,1,2,2,0,2,0.7039,2,1,0.5596
5,140,3,2,1,1,5,2,1,1,0.7448,1,1,0.6006
5,141,3,2,2,2,3,2,1,2,0.627,1,1,0.9308
5,142,3,2,2,1,5,1,0,2,0.6329,1,1,0.5527
5,143,3,2,2,1,1,2,0,2,0.6262,1,1,0.418
5,144,3,2,2,1,6,1,0,2,0.8651,2,2,0.9768
5,145,4,1,2,1,2,2,0,2,0.7248,1,7,7
5,146,4,1,1,2,2,2,0,1,0.4544,1,7,7
5,147,4,1,2,2,2,1,1,2,0.4545,2,7,7
5,148,4,1,2,1,1,2,0,2,0.5187,2,7,7
5,149,4,1,2,1,1,1,0,2,0.4483,1,7,7
5,150,4,1,2,1,6,2,0,2,0.5125,2,7,7
5,151,4,1,1,1,6,1,1,1,0.5061,1,7,7
5,152,4,1,2,2,4,1,1,2,0.4357,1,7,7
5,153,4,1,2,2,1,1,1,2,0.4359,1,7,7
5,154,4,1,2,1,6,1,0,2,0.4008,2,7,7
5,155,4,1,2,2,2,2,1,2,0.4363,2,7,7
5,156,4,1,2,1,5,2,0,2,0.4364,1,7,7
5,157,4,1,1,1,2,1,1,1,0.5124,2,7,7
5,158,4,1,2,2,4,2,1,2,0.5178,1,7,7
5,159,4,1,1,2,1,2,0,1,0.4474,2,7,7
5,160,4,1,1,2,1,1,0,1,0.5756,1,7,7
5,161,4,1,2,1,2,1,0,1,0.4463,2,7,7
5,162,4,1,1,2,5,1,0,1,0.4825,2,7,7
5,163,4,1,2,1,4,2,0,2,0.6276,1,7,7
5,164,4,1,1,1,4,1,1,1,0.5035,2,7,7
5,165,4,1,2,2,1,2,1,2,0.4449,1,7,7
5,166,4,1,1,2,5,2,0,1,0.445,1,7,7
5,167,4,1,1,2,4,1,0,1,0.521,2,7,7
5,168,4,1,2,1,5,1,0,2,0.5029,2,7,7
5,169,4,1,1,1,1,1,1,1,0.52,1,7,7
5,170,4,1,2,2,5,1,1,2,0.5136,1,7,7
5,171,4,1,1,2,2,1,0,1,0.5189,1,7,7
5,172,4,1,2,2,3,2,1,2,0.5125,2,7,7
5,173,4,1,2,2,3,1,1,2,0.5179,1,7,7
5,174,4,1,1,2,3,1,0,1,0.5115,2,7,7
5,175,4,1,1,1,4,2,1,1,0.441,2,7,7
5,176,4,1,1,1,1,2,1,1,0.5052,1,7,7
5,177,4,1,2,2,5,2,1,2,0.4466,1,7,7
5,178,4,1,1,2,3,2,0,1,0.4873,1,7,7
5,179,4,1,1,1,3,2,1,1,0.5044,1,7,7
5,180,4,1,1,1,5,2,1,1,0.3935,2,7,7
5,181,4,1,2,1,3,2,0,2,0.4526,2,7,7
5,182,4,1,1,2,4,2,0,1,0.4527,1,7,7
5,183,4,1,2,2,6,2,1,2,0.5691,2,7,7
5,184,4,1,1,1,6,2,1,1,0.4517,2,7,7
5,185,4,1,1,1,5,1,1,1,0.5158,2,7,7
5,186,4,1,1,1,2,2,1,1,0.5213,1,7,7
5,187,4,1,2,1,4,1,0,2,0.5147,2,7,7
5,188,4,1,1,1,3,1,1,1,0.5841,2,7,7
5,189,4,1,1,2,6,2,0,1,0.5189,1,7,7
5,190,4,1,1,2,6,1,0,1,0.5125,2,7,7
5,191,4,1,2,1,3,1,0,2,0.4538,2,7,7
5,192,4,1,2,2,6,1,1,2,0.5702,1,7,7
6,1,1,2,1,2,5,1,0,1,1.0945,2,2,0.8863
6,2,1,2,1,1,2,2,1,1,0.8981,1,1,0.8178
6,3,1,2,2,1,2,2,0,2,0.8885,2,2,0.8082
6,4,1,2,1,1,4,2,1,1,0.7744,1,1,1.0142
6,5,1,2,1,2,3,2,0,1,0.8325,2,2,1.3923
6,6,1,2,1,2,1,1,0,1,0.8981,1,1,1.2019
6,7,1,2,1,2,4,1,0,1,0.768,1,1,0.8798
6,8,1,2,1,1,3,1,1,1,0.7753,2,2,0.7591
6,9,1,2,2,1,6,1,0,2,1.8603,2,2,1.0761
6,10,1,2,1,2,3,1,0,1,0.7077,2,2,0.8834
6,11,1,2,2,1,3,1,0,2,1.0114,2,2,1.1232
6,12,1,2,2,2,4,1,1,2,1.8597,1,2,1.2034
6,13,1,2,2,2,2,1,1,2,1.1255,2,2,0.7253
6,14,1,2,2,1,4,1,0,2,1.0938,2,1,0.5016
6,15,1,2,1,2,2,1,0,7,7,1,2,1.1378
6,16,1,2,2,2,3,1,1,1,0.8834,1,7,7
6,17,1,2,1,1,5,2,1,1,1.0059,2,2,0.9896
6,18,1,2,2,2,1,1,1,2,1.9247,1,1,1.3325
6,19,1,2,1,1,1,1,1,7,7,2,2,1.0096
6,20,1,2,1,2,4,2,0,1,0.9678,1,1,1.5916
6,21,1,2,1,2,2,2,0,1,1.2814,2,2,0.7532
6,22,1,2,1,2,6,2,0,1,0.6383,2,2,0.8781
6,23,1,2,2,2,6,1,1,2,1.2216,1,1,0.8214
6,24,1,2,2,2,1,2,1,2,1.0841,1,2,1.1318
6,25,1,2,2,1,2,1,0,2,1.0135,1,7,7
6,26,1,2,2,1,6,2,0,2,0.8759,1,2,1.1157
6,27,1,2,2,1,5,2,0,2,1.772,2,2,1.4997
6,28,1,2,1,1,4,1,1,1,0.8997,2,2,0.8834
6,29,1,2,1,2,6,1,0,1,1.5352,2,2,0.943
6,30,1,2,1,1,1,2,1,1,1.7279,1,1,1.4557
6,31,1,2,2,2,5,1,1,2,0.8387,1,1,1.0785
6,32,1,2,1,1,6,2,1,2,1.7861,2,2,1.6221
6,33,1,2,1,1,5,1,1,7,7,2,7,7
6,34,1,2,1,1,6,1,1,1,0.8028,2,2,1.1066
6,35,1,2,2,1,3,2,0,1,0.8948,1,2,2.061
6,36,1,2,1,2,5,2,0,1,0.8212,1,1,1.189
6,37,1,2,2,2,2,2,1,2,0.9588,2,2,1.5186
6,38,1,2,2,1,1,2,0,7,7,2,1,2.1242
6,39,1,2,1,1,2,1,1,1,0.866,1,1,0.9779
6,40,1,2,2,2,4,2,1,2,0.9359,1,2,1.0478
6,41,1,2,2,2,5,2,1,2,1.0757,1,1,1.2515
6,42,1,2,2,2,6,2,1,2,1.2354,2,2,0.8352
6,43,1,2,1,1,3,2,1,1,0.7661,1,1,1.0059
6,44,1,2,1,2,1,2,0,1,0.8359,2,2,1.2037
6,45,1,2,2,1,5,1,0,2,1.5901,1,1,2.2139
6,46,1,2,2,1,4,2,0,1,1.617,1,1,2.5136
6,47,1,2,2,2,3,2,1,2,1.0179,2,1,1.3857
6,48,1,2,2,1,1,1,0,1,1.0202,1,7,7
6,49,2,1,1,2,4,1,0,1,1.1127,1,7,7
6,50,2,1,2,2,5,2,1,2,0.902,1,7,7
6,51,2,1,1,1,5,2,1,1,0.7111,1,7,7
6,52,2,1,1,1,6,1,1,1,0.6967,2,7,7
6,53,2,1,1,1,3,1,1,1,0.758,1,7,7
6,54,2,1,1,2,3,2,0,1,1.0805,1,7,7
6,55,2,1,1,1,4,1,1,1,0.8293,1,7,7
6,56,2,1,2,2,4,1,1,2,0.773,1,7,7
6,57,2,1,2,1,6,2,0,2,1.1595,1,7,7
6,58,2,1,2,1,5,2,0,2,0.8377,1,7,7
6,59,2,1,2,1,4,2,0,2,0.7696,2,7,7
6,60,2,1,2,1,3,2,0,2,0.6964,2,7,7
6,61,2,1,1,2,6,2,0,1,0.8217,2,7,7
6,62,2,1,2,2,3,2,1,2,0.8294,2,7,7
6,63,2,1,1,1,1,2,1,1,1.4131,2,7,7
6,64,2,1,2,2,2,2,1,2,0.6404,2,7,7
6,65,2,1,2,2,5,1,1,1,0.6444,1,7,7
6,66,2,1,2,1,2,2,0,2,0.8123,2,7,7
6,67,2,1,2,1,2,1,0,2,0.9481,2,7,7
6,68,2,1,2,2,1,2,1,2,0.7622,2,7,7
6,69,2,1,2,1,1,1,0,2,0.8287,2,7,7
6,70,2,1,2,2,4,2,1,2,0.8246,1,7,7
6,71,2,1,1,1,6,2,1,1,0.7683,2,7,7
6,72,2,1,1,2,4,2,0,1,1.3468,1,7,7
6,73,2,1,2,1,1,2,0,2,0.9648,2,7,7
6,74,2,1,2,1,5,1,0,2,0.6393,1,7,7
6,75,2,1,1,1,2,1,1,1,0.6601,2,7,7
6,76,2,1,1,1,4,2,1,1,0.6928,1,7,7
6,77,2,1,2,1,4,1,0,2,0.8063,2,7,7
6,78,2,1,1,1,5,1,1,1,0.7618,2,7,7
6,79,2,1,1,1,1,1,1,1,0.7121,1,7,7
6,80,2,1,2,2,6,2,1,2,0.7734,1,7,7
6,81,2,1,1,2,5,2,0,1,0.7119,2,7,7
6,82,2,1,2,1,6,1,0,2,0.8255,2,7,7
6,83,2,1,2,2,2,1,1,2,0.9494,2,7,7
6,84,2,1,1,2,5,1,0,1,0.7636,1,7,7
6,85,2,1,2,1,3,1,0,2,0.8183,1,7,7
6,86,2,1,1,2,6,1,0,1,0.762,2,7,7
6,87,2,1,2,2,1,1,1,2,0.9043,1,7,7
6,88,2,1,2,2,3,1,1,2,0.8414,1,7,7
6,89,2,1,1,2,2,1,0,1,0.8373,2,7,7
6,90,2,1,1,2,1,2,0,1,0.8854,1,7,7
6,91,2,1,1,1,2,2,1,1,0.6305,1,7,7
6,92,2,1,1,1,3,2,1,1,0.6462,2,7,7
6,93,2,1,2,2,6,1,1,2,0.8826,2,7,7
6,94,2,1,1,2,3,1,0,1,0.8315,1,7,7
6,95,2,1,1,2,2,2,0,1,0.7751,2,7,7
6,96,2,1,1,2,1,1,0,1,0.5856,1,7,7
6,97,3,1,1,2,2,2,0,1,0.9269,2,7,7
6,98,3,1,1,1,5,2,1,1,0.8286,2,7,7
6,99,3,1,1,1,6,1,1,1,0.6613,1,7,7
6,100,3,1,2,2,1,2,1,2,0.7579,1,7,7
6,101,3,1,2,1,6,1,0,2,1.0164,2,7,7
6,102,3,1,1,2,4,2,0,1,0.7078,1,7,7
6,103,3,1,2,1,3,1,0,2,0.9612,1,7,7
6,104,3,1,1,2,6,1,0,1,0.5834,1,7,7
6,105,3,1,1,1,2,2,1,1,0.6462,2,7,7
6,106,3,1,2,1,4,1,0,2,0.7546,2,7,7
6,107,3,1,1,1,1,2,1,1,0.9491,1,7,7
6,108,3,1,2,2,2,2,1,2,0.6993,2,7,7
6,109,3,1,1,2,4,1,0,1,0.7724,1,7,7
6,110,3,1,1,2,1,2,0,1,0.7109,1,7,7
6,111,3,1,1,2,3,1,0,1,0.9643,2,7,7
6,112,3,1,2,1,4,2,0,2,0.8947,1,7,7
6,113,3,1,2,2,1,1,1,1,0.7039,2,7,7
6,114,3,1,1,2,1,1,0,1,0.9932,2,7,7
6,115,3,1,2,1,5,1,0,2,1.1443,2,7,7
6,116,3,1,1,2,6,2,0,1,0.7586,2,7,7
6,117,3,1,2,2,5,2,1,2,1.0811,1,7,7
6,118,3,1,2,1,2,2,0,1,0.7306,1,7,7
6,119,3,1,1,1,6,2,1,1,1.3804,2,7,7
6,120,3,1,1,1,3,1,1,1,0.7593,1,7,7
6,121,3,1,2,2,3,1,1,2,0.9656,2,7,7
6,122,3,1,2,1,2,1,0,2,0.6283,2,7,7
6,123,3,1,1,1,4,1,1,7,7,1,7,7
6,124,3,1,2,2,4,2,1,2,1.2509,2,7,7
6,125,3,1,1,2,5,2,0,1,0.8989,2,7,7
6,126,3,1,1,1,3,2,1,1,0.9,2,7,7
6,127,3,1,2,1,1,2,0,2,1.0814,1,7,7
6,128,3,1,1,1,4,2,1,1,1.0104,1,7,7
6,129,3,1,1,2,2,1,0,1,0.9578,1,7,7
6,130,3,1,2,2,2,1,1,1,1.0282,1,7,7
6,131,3,1,2,1,6,2,0,2,0.796,2,7,7
6,132,3,1,2,1,3,2,0,2,0.7111,2,7,7
6,133,3,1,1,1,1,1,1,1,1.2203,1,7,7
6,134,3,1,2,1,5,2,0,2,0.8397,1,7,7
6,135,3,1,2,2,3,2,1,2,0.8356,1,7,7
6,136,3,1,2,2,4,1,1,2,0.8956,2,7,7
6,137,3,1,1,1,5,1,1,1,1.1526,2,7,7
6,138,3,1,2,1,1,1,0,2,0.8308,1,7,7
6,139,3,1,1,2,5,1,0,1,1.4667,1,7,7
6,140,3,1,2,2,6,2,1,2,0.8273,2,7,7
6,141,3,1,2,2,6,1,1,1,1.3992,1,7,7
6,142,3,1,2,2,5,1,1,2,0.8833,2,7,7
6,143,3,1,1,2,3,2,0,1,0.8086,1,7,7
6,144,3,1,1,1,2,1,1,1,0.7,2,7,7
6,145,4,2,1,2,3,2,0,1,1.1026,2,2,1.2144
6,146,4,2,1,1,5,2,1,1,0.949,2,2,1.3808
6,147,4,2,2,2,5,1,1,2,0.8344,2,2,1.6502
6,148,4,2,2,1,3,2,0,2,1.4732,2,2,0.8169
6,149,4,2,1,1,4,2,1,1,0.8993,1,1,1.0111
6,150,4,2,2,1,1,1,0,2,1.2657,1,1,0.9295
6,151,4,2,2,2,6,1,1,2,1.0104,2,2,0.7382
6,152,4,2,1,2,1,2,0,1,0.9552,1,1,1.1309
6,153,4,2,2,1,5,1,0,2,1.5239,2,2,0.7397
6,154,4,2,2,1,3,1,0,2,0.9566,2,1,1.1964
6,155,4,2,2,2,2,1,1,2,1.0545,1,1,0.9743
6,156,4,2,1,2,2,1,0,1,1.9277,1,2,1.1436
6,157,4,2,2,2,3,2,1,2,0.9324,1,1,0.9162
6,158,4,2,2,2,1,2,1,2,1.0729,1,2,0.8647
6,159,4,2,1,1,6,1,1,1,1,1,1,0.9198
6,160,4,2,1,2,4,2,0,1,1.0883,2,2,0.8161
6,161,4,2,2,1,2,1,0,2,1.5385,2,2,1.1382
6,162,4,2,1,2,5,1,0,1,0.8912,2,2,1.323
6,163,4,2,2,1,4,1,0,2,0.9399,2,2,1.0516
6,164,4,2,1,2,6,2,0,1,1.8469,2,2,1.3187
6,165,4,2,1,2,3,1,0,1,0.8481,1,1,1.0879
6,166,4,2,1,1,4,1,1,1,0.8238,1,1,1.3196
6,167,4,2,1,1,3,2,1,1,0.8961,2,1,1.0078
6,168,4,2,2,2,4,2,1,2,0.7982,1,2,0.7821
6,169,4,2,2,2,4,1,1,2,1.3837,1,1,0.7275
6,170,4,2,1,1,1,2,1,1,0.776,1,1,0.6318
6,171,4,2,1,1,6,2,1,1,0.9024,1,1,0.7582
6,172,4,2,1,1,3,1,1,1,1.3474,1,2,2.5472
6,173,4,2,1,1,1,1,1,1,1.4649,2,2,1.1927
6,174,4,2,2,1,6,1,0,2,0.9508,2,2,1.1905
6,175,4,2,2,2,6,2,1,2,1.6526,1,1,0.9324
6,176,4,2,1,1,2,1,1,1,0.739,1,1,0.9148
6,177,4,2,2,1,2,2,0,2,1.2113,2,2,1.0031
6,178,4,2,2,1,1,2,0,2,1.6534,1,2,1.1252
6,179,4,2,1,1,5,1,1,1,1.0657,1,2,0.9854
6,180,4,2,2,2,5,2,1,2,1.1311,2,2,1.3069
6,181,4,2,1,1,2,2,1,1,1.0113,1,1,0.6751
6,182,4,2,1,2,4,1,0,1,0.8987,1,1,1.2024
6,183,4,2,2,2,1,1,1,2,1.0886,2,2,0.9444
6,184,4,2,2,2,2,2,1,2,0.8333,2,1,0.8171
6,185,4,2,1,2,1,1,0,1,1.6277,1,1,0.8435
6,186,4,2,2,2,3,1,1,2,0.9546,2,1,1.4503
6,187,4,2,1,2,6,1,0,2,0.8576,2,2,1.2272
6,188,4,2,1,2,2,2,0,1,1.2347,2,2,0.7704
6,189,4,2,2,1,5,2,0,2,0.8764,2,2,0.8601
6,190,4,2,2,1,6,2,0,1,0.7675,1,1,0.8471
6,191,4,2,2,1,4,2,0,2,0.9347,1,1,1.1745
6,192,4,2,1,2,5,2,0,2,1.2879,2,1,1.9378
7,1,1,1,1,2,4,1,0,1,0.8798,2,7,7
7,2,1,1,2,1,6,2,0,2,0.5843,2,7,7
7,3,1,1,1,1,6,1,1,1,0.6353,1,7,7
7,4,1,1,1,2,1,1,0,1,0.6275,2,7,7
7,5,1,1,1,2,5,2,0,1,0.5792,2,7,7
7,6,1,1,1,1,1,2,1,1,0.578,1,7,7
7,7,1,1,1,1,5,1,1,1,0.501,2,7,7
7,8,1,1,2,1,2,2,0,2,0.7101,2,7,7
7,9,1,1,2,2,4,1,1,2,0.5794,1,7,7
7,10,1,1,1,2,3,2,0,1,0.5782,2,7,7
7,11,1,1,1,1,5,2,1,1,0.5129,1,7,7
7,12,1,1,1,1,4,1,1,1,0.5183,2,7,7
7,13,1,1,2,1,2,1,0,2,0.5119,1,7,7
7,14,1,1,1,2,2,2,0,1,0.5172,2,7,7
7,15,1,1,2,2,1,2,1,2,0.6271,1,7,7
7,16,1,1,2,2,6,1,1,2,0.5787,2,7,7
7,17,1,1,1,1,2,1,1,1,0.5775,2,7,7
7,18,1,1,2,1,3,2,0,1,0.4483,1,7,7
7,19,1,1,1,2,2,1,0,1,0.5485,2,7,7
7,20,1,1,2,1,5,2,0,2,0.5825,2,7,7
7,21,1,1,1,2,6,1,0,1,0.7145,1,7,7
7,22,1,1,2,2,3,2,1,2,0.508,2,7,7
7,23,1,1,2,1,1,2,0,2,0.5538,2,7,7
7,24,1,1,2,2,4,2,1,2,0.5004,2,7,7
7,25,1,1,2,2,5,1,1,2,0.5697,1,7,7
7,26,1,1,2,2,1,1,1,2,0.5685,1,7,7
7,27,1,1,2,1,4,2,0,2,0.5033,1,7,7
7,28,1,1,1,2,3,1,0,1,0.5608,1,7,7
7,29,1,1,2,1,1,1,0,2,0.5831,2,7,7
7,30,1,1,1,2,1,2,0,1,0.5179,1,7,7
7,31,1,1,1,1,3,1,1,1,0.5115,2,7,7
7,32,1,1,1,1,6,2,1,1,0.5808,2,7,7
7,33,1,1,2,2,2,1,1,2,0.5678,2,7,7
7,34,1,1,2,1,6,1,0,2,0.7586,1,7,7
7,35,1,1,1,2,5,1,0,1,0.5169,1,7,7
7,36,1,1,2,2,6,2,1,2,0.5104,1,7,7
7,37,1,1,1,1,1,1,1,1,0.4518,1,7,7
7,38,1,1,2,2,5,2,1,2,0.58,1,7,7
7,39,1,1,1,1,2,2,1,1,0.503,2,7,7
7,40,1,1,2,2,2,2,1,2,0.6246,2,7,7
7,41,1,1,2,1,3,1,0,2,0.5005,1,7,7
7,42,1,1,1,1,4,2,1,1,0.5176,1,7,7
7,43,1,1,1,1,3,2,1,1,0.5634,1,7,7
7,44,1,1,1,2,4,2,0,1,0.574,1,7,7
7,45,1,1,2,2,3,1,1,2,0.7125,1,7,7
7,46,1,1,2,1,5,1,0,2,0.4421,2,7,7
7,47,1,1,1,2,6,2,0,1,0.5872,1,7,7
7,48,1,1,2,1,4,1,0,2,0.4984,2,7,7
7,49,2,2,1,2,2,1,0,1,0.6559,2,2,0.7677
7,50,2,2,1,1,5,2,1,1,0.5653,2,2,0.8691
7,51,2,2,2,1,2,1,0,2,0.6484,2,2,0.6962
7,52,2,2,2,1,3,2,0,2,0.7042,1,1,1.072
7,53,2,2,1,2,3,2,0,1,0.6918,1,1,0.8676
7,54,2,2,1,2,6,1,0,1,0.5711,1,1,0.9389
7,55,2,2,1,2,1,1,0,1,0.6358,1,1,0.8116
7,56,2,2,1,1,6,1,1,1,0.6902,1,1,0.738
7,57,2,2,2,1,3,1,0,1,0.5827,1,1,0.8507
7,58,2,2,1,1,5,1,1,1,0.7058,1,1,0.9455
7,59,2,2,2,1,1,2,0,2,0.6425,1,1,0.7543
7,60,2,2,2,1,5,1,0,2,0.7035,1,1,0.6873
7,61,2,2,2,2,6,2,1,2,0.6313,2,2,0.6791
7,62,2,2,2,2,4,2,1,2,0.6989,1,1,0.8747
7,63,2,2,2,1,2,2,0,2,0.5952,1,1,0.7069
7,64,2,2,2,2,2,1,1,2,0.6274,2,2,0.7392
7,65,2,2,1,1,4,2,1,1,0.6479,1,1,0.9517
7,66,2,2,2,1,5,2,0,2,0.7649,2,1,1.2607
7,67,2,2,2,2,1,1,1,2,0.804,2,1,1.2998
7,68,2,2,1,1,1,2,1,1,0.7437,1,1,0.7915
7,69,2,2,2,2,6,1,1,2,0.7224,2,1,0.8341
7,70,2,2,2,2,3,2,1,2,0.6613,2,2,0.709
7,71,2,2,2,1,6,2,0,2,0.798,2,2,0.9738
7,72,2,2,1,2,6,2,0,1,0.7752,2,2,1.207
7,73,2,2,1,2,2,2,0,1,0.6451,2,2,1.0128
7,74,2,2,1,2,5,1,0,1,0.6392,1,1,0.879
7,75,2,2,2,2,5,1,1,1,0.7105,2,2,0.7851
7,76,2,2,1,1,3,2,1,1,0.6349,2,2,0.6827
7,77,2,2,1,2,4,2,0,1,0.6908,2,1,0.8026
7,78,2,2,1,1,3,1,1,1,0.6009,1,1,0.8407
7,79,2,2,2,1,1,1,0,2,0.6958,1,1,0.9356
7,80,2,2,2,1,4,2,0,2,0.7723,2,2,1.0121
7,81,2,2,2,2,2,2,1,2,0.8187,1,1,0.8665
7,82,2,2,1,1,6,2,1,1,0.7098,1,2,1.5255
7,83,2,2,1,1,2,2,1,1,0.682,2,2,0.8578
7,84,2,2,1,1,2,1,1,1,0.6892,1,2,0.9931
7,85,2,2,1,1,4,1,1,1,0.8592,2,2,0.779
7,86,2,2,1,2,5,2,0,1,0.7569,2,2,1.1887
7,87,2,2,1,2,1,2,0,1,0.6908,1,1,1.0586
7,88,2,2,1,2,3,1,0,1,0.6548,2,1,1.1506
7,89,2,2,1,1,1,1,1,1,0.6195,2,2,1.7553
7,90,2,2,2,2,1,2,1,2,0.6404,2,2,0.8802
7,91,2,2,2,2,3,1,1,2,0.7117,1,1,0.8235
7,92,2,2,2,1,4,1,0,2,0.6146,2,2,0.7903
7,93,2,2,2,2,5,2,1,2,0.5645,2,2,0.6763
7,94,2,2,1,2,4,1,0,1,0.7601,1,1,0.8079
7,95,2,2,2,2,4,1,1,2,0.6342,1,1,0.874
7,96,2,2,2,1,6,1,0,2,0.6702,1,2,0.846
7,97,3,2,2,2,6,2,1,2,0.6623,2,2,0.5181
7,98,3,2,2,2,2,2,1,2,0.7666,1,1,0.8784
7,99,3,2,2,1,3,1,0,2,0.5819,1,1,0.6937
7,100,3,2,1,2,4,2,0,1,0.69,2,2,0.7378
7,101,3,2,1,1,3,2,1,1,0.5708,1,1,0.8746
7,102,3,2,1,2,4,1,0,1,0.5311,1,1,0.8348
7,103,3,2,2,2,4,1,1,2,0.6377,1,1,1.0055
7,104,3,2,1,1,1,1,1,1,0.5155,2,1,1.0113
7,105,3,2,2,2,5,2,1,2,0.5457,2,2,1.1055
7,106,3,2,1,2,1,2,0,1,0.6377,1,1,1.1975
7,107,3,2,1,1,5,1,1,1,0.6356,2,1,0.8753
7,108,3,2,2,1,3,2,0,2,0.6841,1,1,0.8599
7,109,3,2,1,1,6,1,1,1,0.5634,2,2,0.7392
7,110,3,2,1,1,3,1,1,1,0.6766,1,1,1.6204
7,111,3,2,1,2,2,2,0,1,0.5827,2,2,1.7825
7,112,3,2,1,1,4,2,1,1,0.5683,1,1,0.8721
7,113,3,2,2,2,1,1,1,2,0.8317,2,2,1.6474
7,114,3,2,2,1,2,1,0,2,0.6384,2,1,0.8782
7,115,3,2,1,2,5,2,0,1,0.67,1,1,0.8457
7,116,3,2,1,2,2,1,0,1,0.8054,2,2,0.6611
7,117,3,2,2,1,6,1,0,2,0.6927,1,1,0.8044
7,118,3,2,2,1,5,2,0,2,0.6308,2,2,0.7426
7,119,3,2,2,2,4,2,1,2,0.5638,2,2,0.6115
7,120,3,2,2,2,3,1,1,2,0.6144,2,2,0.8542
7,121,3,2,2,1,2,2,0,2,0.5173,1,1,0.9491
7,122,3,2,2,1,6,2,0,2,0.5467,1,2,0.9785
7,123,3,2,2,1,1,2,0,2,0.6122,2,2,0.6599
7,124,3,2,1,1,2,1,1,1,0.6915,2,2,1.8273
7,125,3,2,1,1,1,2,1,1,0.5138,1,1,0.8816
7,126,3,2,2,1,4,2,0,2,0.8293,1,1,0.7491
7,127,3,2,2,2,6,1,1,2,0.5703,1,1,0.8741
7,128,3,2,1,1,2,2,1,1,0.6586,2,2,1.0264
7,129,3,2,2,1,5,1,0,2,0.5012,2,2,0.677
7,130,3,2,1,1,4,1,1,7,7,1,2,1.6008
7,131,3,2,1,2,3,2,0,1,0.5874,1,2,1.0191
7,132,3,2,2,2,3,2,1,2,0.6514,1,1,1.0192
7,133,3,2,2,2,1,2,1,2,0.6338,2,1,0.8735
7,134,3,2,1,1,5,2,1,1,0.63,2,2,0.9978
7,135,3,2,1,2,6,2,0,1,0.8397,1,1,0.9515
7,136,3,2,2,2,5,1,1,2,0.5204,1,1,0.8242
7,137,3,2,2,1,4,1,0,2,0.5748,2,2,1.4546
7,138,3,2,1,2,5,1,0,1,0.5176,1,2,1.0134
7,139,3,2,1,1,6,2,1,1,0.5478,2,2,0.6595
7,140,3,2,1,2,1,1,0,1,0.4991,1,1,0.8029
7,141,3,2,2,2,2,1,1,2,0.5653,2,2,0.7411
7,142,3,2,1,2,3,1,0,1,0.5152,1,2,1.139
7,143,3,2,1,2,6,1,0,1,0.4799,2,2,0.9757
7,144,3,2,2,1,1,1,0,2,1.0736,2,1,1.3774
7,145,4,1,1,1,1,1,1,1,0.7,2,7,7
7,146,4,1,1,2,6,1,0,1,0.6738,1,7,7
7,147,4,1,2,1,3,1,0,2,0.7065,1,7,7
7,148,4,1,1,2,4,2,0,1,0.5758,2,7,7
7,149,4,1,2,1,4,1,0,2,0.8305,2,7,7
7,150,4,1,1,1,2,1,1,1,0.5182,2,7,7
7,151,4,1,2,2,4,1,1,2,0.5758,1,7,7
7,152,4,1,2,1,6,1,0,2,0.4988,2,7,7
7,153,4,1,1,2,4,1,0,1,0.5682,2,7,7
7,154,4,1,2,2,6,2,1,2,0.6309,2,7,7
7,155,4,1,2,1,2,1,0,2,0.8151,2,7,7
7,156,4,1,2,2,2,2,1,2,0.5432,1,7,7
7,157,4,1,1,1,6,1,1,1,0.5133,1,7,7
7,158,4,1,2,2,3,1,1,2,0.5826,1,7,7
7,159,4,1,2,2,4,2,1,2,0.5814,1,7,7
7,160,4,1,2,1,1,1,0,2,0.5803,1,7,7
7,161,4,1,2,1,2,2,0,2,0.5149,1,7,7
7,162,4,1,2,2,1,1,1,2,0.7123,1,7,7
7,163,4,1,1,2,5,1,0,1,0.5698,1,7,7
7,164,4,1,1,1,4,2,1,1,0.6966,2,7,7
7,165,4,1,2,1,4,2,0,2,0.758,2,7,7
7,166,4,1,1,2,3,2,0,1,0.5044,1,7,7
7,167,4,1,2,2,5,2,1,2,0.5503,2,7,7
7,168,4,1,1,1,6,2,1,1,0.4968,2,7,7
7,169,4,1,2,2,1,2,1,2,0.8979,1,7,7
7,170,4,1,2,1,1,2,0,2,0.7592,1,7,7
7,171,4,1,2,1,5,1,0,2,0.5175,1,7,7
7,172,4,1,2,2,5,1,1,2,0.5111,1,7,7
7,173,4,1,2,1,5,2,0,2,0.4524,2,7,7
7,174,4,1,2,1,6,2,0,2,0.5806,2,7,7
7,175,4,1,2,2,6,1,1,2,0.5036,2,7,7
7,176,4,1,1,2,1,2,0,1,0.701,1,7,7
7,177,4,1,1,1,1,2,1,1,0.5703,2,7,7
7,178,4,1,1,2,6,2,0,1,0.6331,2,7,7
7,179,4,1,1,1,3,1,1,1,0.637,2,7,7
7,180,4,1,1,1,5,2,1,1,0.7689,1,7,7
7,181,4,1,1,2,2,1,0,1,0.5442,2,7,7
7,182,4,1,1,2,5,2,0,1,0.5782,1,7,7
7,183,4,1,1,1,3,2,1,1,0.6409,2,7,7
7,184,4,1,1,1,4,1,1,1,0.5169,1,7,7
7,185,4,1,1,1,2,2,1,1,0.5104,1,7,7
7,186,4,1,1,2,2,2,0,1,0.5041,1,7,7
7,187,4,1,1,2,3,1,0,1,0.6374,1,7,7
7,188,4,1,2,2,3,2,1,2,0.6296,1,7,7
7,189,4,1,1,2,1,1,0,1,0.6975,2,7,7
7,190,4,1,2,1,3,2,0,2,0.8869,2,7,7
7,191,4,1,1,1,5,1,1,1,0.5797,2,7,7
7,192,4,1,2,2,2,1,1,2,0.7587,2,7,7
8,1,1,2,2,2,2,2,1,2,0.9485,2,2,0.6122
8,2,1,2,2,2,4,2,1,2,0.6085,2,1,0.5283
8,3,1,2,2,1,6,1,0,2,0.9291,2,2,0.8489
8,4,1,2,2,1,3,2,0,2,0.7039,2,2,1.2637
8,5,1,2,1,2,3,2,0,1,0.7069,2,2,0.6908
8,6,1,2,2,1,2,1,0,2,0.7747,1,1,0.7584
8,7,1,2,1,2,1,1,0,1,0.8996,1,2,0.6913
8,8,1,2,2,2,4,1,1,2,0.7472,1,1,0.8589
8,9,1,2,1,2,3,1,0,1,0.7545,1,2,1.1223
8,10,1,2,2,1,2,2,0,2,0.9347,2,2,0.6626
8,11,1,2,1,1,6,2,1,1,0.7985,1,1,0.9103
8,12,1,2,1,1,3,2,1,1,0.6426,2,2,1.0743
8,13,1,2,1,2,2,1,0,1,0.8456,1,1,0.7654
8,14,1,2,2,1,4,2,0,2,0.7786,2,2,0.7624
8,15,1,2,2,1,5,2,0,2,0.6476,2,2,1.0154
8,16,1,2,2,2,1,2,1,2,0.7698,1,1,0.9455
8,17,1,2,1,1,5,1,1,1,0.5785,2,2,0.6903
8,18,1,2,1,1,5,2,1,1,0.6748,1,2,1.6185
8,19,1,2,1,2,6,2,0,1,0.6926,2,2,0.7404
8,20,1,2,2,1,4,1,0,2,0.7653,2,2,0.6211
8,21,1,2,2,1,6,2,0,2,0.7116,1,2,0.6953
8,22,1,2,2,2,2,1,1,2,0.8674,1,1,0.7232
8,23,1,2,1,1,2,1,1,1,0.6959,2,2,0.6157
8,24,1,2,2,2,6,2,1,2,0.6943,2,2,1.1901
8,25,1,2,1,1,2,2,1,1,0.6687,1,1,1.2284
8,26,1,2,1,1,6,1,1,1,0.7188,1,1,1.6625
8,27,1,2,1,1,1,2,1,1,0.6535,1,1,0.8933
8,28,1,2,1,1,4,2,1,1,0.5733,1,2,0.8131
8,29,1,2,1,2,2,2,0,1,0.7513,2,2,0.991
8,30,1,2,1,2,1,2,0,1,0.7049,1,1,1.4567
8,31,1,2,2,1,1,2,0,1,0.5197,2,1,1.3585
8,32,1,2,1,2,5,2,0,1,0.6039,2,2,0.8437
8,33,1,2,1,2,5,1,0,1,0.7275,2,2,1.0312
8,34,1,2,2,2,5,2,1,2,0.7738,2,2,1.0776
8,35,1,2,1,2,4,1,0,1,0.7209,1,1,0.7687
8,36,1,2,1,1,1,1,1,1,0.7819,1,1,0.8936
8,37,1,2,2,2,3,2,1,2,0.7774,1,1,1.1452
8,38,1,2,1,2,6,1,0,1,0.7871,1,1,0.7069
8,39,1,2,2,1,1,1,0,2,0.7031,2,2,0.8149
8,40,1,2,2,2,1,1,1,2,0.7693,2,1,1.3931
8,41,1,2,2,1,5,1,0,2,0.743,1,2,0.9187
8,42,1,2,2,2,6,1,1,2,0.7561,1,1,0.8679
8,43,1,2,1,2,4,2,0,1,0.723,1,1,0.8348
8,44,1,2,1,1,4,1,1,1,0.6494,1,1,0.6972
8,45,1,2,1,1,3,1,1,1,0.5772,1,1,0.689
8,46,1,2,2,2,5,1,1,2,0.7089,2,2,0.7566
8,47,1,2,2,1,3,1,0,1,0.6418,2,2,0.7229
8,48,1,2,2,2,3,1,1,2,0.8995,2,2,0.7552
8,49,2,1,2,2,5,2,1,2,0.9417,2,7,7
8,50,2,1,1,2,5,2,0,1,0.4478,1,7,7
8,51,2,1,1,2,2,1,0,1,0.7679,1,7,7
8,52,2,1,2,2,6,2,1,2,0.5784,1,7,7
8,53,2,1,2,2,5,1,1,2,0.5419,1,7,7
8,54,2,1,1,1,6,1,1,1,0.512,1,7,7
8,55,2,1,2,1,2,1,0,2,0.5695,1,7,7
8,56,2,1,1,1,2,2,1,1,0.5278,2,7,7
8,57,2,1,2,2,3,1,1,2,0.4691,2,7,7
8,58,2,1,2,1,1,2,0,2,0.7894,1,7,7
8,59,2,1,2,1,2,2,0,2,0.5241,2,7,7
8,60,2,1,2,2,6,1,1,2,0.5177,2,7,7
8,61,2,1,2,1,4,1,0,2,0.5282,2,7,7
8,62,2,1,2,1,6,1,0,2,0.638,1,7,7
8,63,2,1,1,2,1,1,0,1,0.6302,1,7,7
8,64,2,1,2,1,4,2,0,2,1.1579,2,7,7
8,65,2,1,2,1,3,1,0,2,0.656,2,7,7
8,66,2,1,2,2,1,2,1,2,0.584,2,7,7
8,67,2,1,1,1,3,2,1,1,0.5828,1,7,7
8,68,2,1,1,1,5,2,1,1,0.5176,1,7,7
8,69,2,1,2,2,2,2,1,2,0.6038,1,7,7
8,70,2,1,2,2,2,1,1,2,0.6313,1,7,7
8,71,2,1,1,2,4,1,0,1,0.6352,1,7,7
8,72,2,1,1,1,6,2,1,1,0.5752,2,7,7
8,73,2,1,1,2,5,1,0,1,0.5857,2,7,7
8,74,2,1,2,2,3,2,1,2,0.5204,2,7,7
8,75,2,1,2,1,5,2,0,2,0.5781,1,7,7
8,76,2,1,1,2,3,2,0,1,0.565,2,7,7
8,77,2,1,1,2,3,1,0,1,0.6278,2,7,7
8,78,2,1,1,2,2,2,0,1,0.6435,1,7,7
8,79,2,1,1,1,2,1,1,1,0.6474,2,7,7
8,80,2,1,2,2,1,1,1,7,7,1,7,7
8,81,2,1,2,2,4,1,1,2,0.5542,1,7,7
8,82,2,1,1,1,1,1,1,1,0.5243,2,7,7
8,83,2,1,1,1,4,1,1,1,0.5819,2,7,7
8,84,2,1,2,2,4,2,1,2,0.5049,2,7,7
8,85,2,1,2,1,1,1,0,2,0.5742,2,7,7
8,86,2,1,1,2,4,2,0,1,0.7009,2,7,7
8,87,2,1,2,1,6,2,0,2,0.5821,1,7,7
8,88,2,1,1,1,1,2,1,1,0.5808,2,7,7
8,89,2,1,2,1,3,2,0,2,0.5913,2,7,7
8,90,2,1,1,2,6,1,0,1,0.5784,1,7,7
8,91,2,1,1,1,5,1,1,1,0.5014,2,7,7
8,92,2,1,1,1,4,2,1,1,0.4596,1,7,7
8,93,2,1,1,2,1,2,0,1,0.768,1,7,7
8,94,2,1,1,2,6,2,0,1,0.5145,1,7,7
8,95,2,1,2,1,5,1,0,2,0.5199,1,7,7
8,96,2,1,1,1,3,1,1,1,0.5135,2,7,7
8,97,3,1,1,2,1,2,0,1,0.723,1,7,7
8,98,3,1,1,2,1,1,0,1,0.5806,2,7,7
8,99,3,1,1,2,6,1,0,1,0.5676,1,7,7
8,100,3,1,2,2,4,1,1,2,0.5781,1,7,7
8,101,3,1,1,2,2,2,0,1,0.4489,1,7,7
8,102,3,1,1,1,1,2,1,1,0.5013,2,7,7
8,103,3,1,2,2,4,2,1,2,0.5184,1,7,7
8,104,3,1,2,2,5,2,1,2,0.576,2,7,7
8,105,3,1,1,2,4,2,0,1,0.5108,2,7,7
8,106,3,1,1,2,5,1,0,1,0.5161,2,7,7
8,107,3,1,1,1,2,1,1,1,0.8297,2,7,7
8,108,3,1,1,1,3,1,1,1,0.5174,1,7,7
8,109,3,1,1,1,4,2,1,1,0.4992,2,7,7
8,110,3,1,1,1,5,1,1,1,0.5921,1,7,7
8,111,3,1,1,1,3,2,1,1,0.5151,1,7,7
8,112,3,1,1,2,3,1,0,1,0.5205,2,7,7
8,113,3,1,2,1,4,2,0,2,0.6421,1,7,7
8,114,3,1,1,2,2,1,0,1,0.518,2,7,7
8,115,3,1,2,2,1,1,1,2,0.6278,2,7,7
8,116,3,1,1,2,6,2,0,1,0.4397,2,7,7
8,117,3,1,2,2,2,2,1,2,0.5158,2,7,7
8,118,3,1,1,2,3,2,0,1,0.4504,1,7,7
8,119,3,1,2,2,6,1,1,2,0.6948,2,7,7
8,120,3,1,1,2,4,1,0,1,0.5002,2,7,7
8,121,3,1,2,1,1,1,0,2,0.8256,1,7,7
8,122,3,1,2,2,6,2,1,2,0.5132,1,7,7
8,123,3,1,2,2,2,1,1,2,0.5826,2,7,7
8,124,3,1,1,1,6,1,1,1,0.5813,1,7,7
8,125,3,1,1,2,5,2,0,1,0.7603,1,7,7
8,126,3,1,1,1,1,1,1,1,0.5068,2,7,7
8,127,3,1,2,1,5,2,0,2,0.5762,2,7,7
8,128,3,1,2,1,3,1,0,1,0.5632,2,7,7
8,129,3,1,2,1,6,2,0,2,0.6737,1,7,7
8,130,3,1,2,2,3,1,1,2,0.9388,1,7,7
8,131,3,1,1,1,4,1,1,1,0.5088,2,7,7
8,132,3,1,2,1,4,1,0,2,0.6304,2,7,7
8,133,3,1,2,2,1,2,1,2,0.7101,1,7,7
8,134,3,1,2,1,2,1,0,2,0.5794,1,7,7
8,135,3,1,2,1,3,2,0,2,0.5664,2,7,7
8,136,3,1,1,1,2,2,1,1,0.6292,1,7,7
8,137,3,1,2,2,5,1,1,2,0.6449,2,7,7
8,138,3,1,1,1,6,2,1,1,0.7129,1,7,7
8,139,3,1,2,1,2,2,0,2,0.7102,2,7,7
8,140,3,1,1,1,5,2,1,1,0.5677,1,7,7
8,141,3,1,2,2,3,2,1,2,0.7585,1,7,7
8,142,3,1,2,1,5,1,0,2,0.761,1,7,7
8,143,3,1,2,1,1,2,0,1,0.5244,1,7,7
8,144,3,1,2,1,6,1,0,2,0.554,2,7,7
8,145,4,2,2,1,2,2,0,2,0.6935,1,1,0.4853
8,146,4,2,1,2,2,2,0,1,0.6411,1,1,0.5609
8,147,4,2,2,2,2,1,1,2,0.7102,2,2,0.5659
8,148,4,2,2,1,1,2,0,2,0.7034,2,2,0.6232
8,149,4,2,2,1,1,1,0,2,0.7018,1,1,0.6216
8,150,4,2,2,1,6,2,0,2,0.7119,2,2,0.6317
8,151,4,2,1,1,6,1,1,1,0.7391,1,1,0.7869
8,152,4,2,2,2,4,1,1,2,0.7125,1,2,0.6963
8,153,4,2,2,2,1,1,1,2,0.6411,1,1,1.7768
8,154,4,2,2,1,6,1,0,2,1.8426,2,2,1.1224
8,155,4,2,2,2,2,2,1,2,0.5789,2,2,0.6267
8,156,4,2,2,1,5,2,0,2,0.5773,1,1,0.8811
8,157,4,2,1,1,2,1,1,1,0.6368,2,2,0.6206
8,158,4,2,2,2,4,2,1,2,0.711,1,1,0.8869
8,159,4,2,1,2,1,2,0,7,7,2,7,7
8,160,4,2,1,2,1,1,0,1,1.2163,1,2,1.0721
8,161,4,2,2,1,2,1,0,2,0.7396,2,1,0.7234
8,162,4,2,1,2,5,1,0,1,0.68,2,2,0.7917
8,163,4,2,2,1,4,2,0,2,0.7696,1,1,0.8814
8,164,4,2,1,1,4,1,1,1,0.7181,2,2,0.8299
8,165,4,2,2,2,1,2,1,2,0.7607,1,2,0.6165
8,166,4,2,1,2,5,2,0,1,0.8239,1,1,0.9356
8,167,4,2,1,2,4,1,0,1,0.9004,2,2,0.6281
8,168,4,2,2,1,5,1,0,2,0.7708,2,1,1.6506
8,169,4,2,1,1,1,1,1,1,0.6136,1,2,0.7254
8,170,4,2,2,2,5,1,1,2,0.7576,1,1,0.7414
8,171,4,2,1,2,2,1,0,1,0.7664,1,1,0.6222
8,172,4,2,2,2,3,2,1,2,0.9686,2,2,0.7603
8,173,4,2,2,2,3,1,1,2,0.7905,1,1,0.8383
8,174,4,2,1,2,3,1,0,1,0.8331,2,2,0.6249
8,175,4,2,1,1,4,2,1,1,0.9477,2,2,0.8035
8,176,4,2,1,1,1,2,1,1,0.8219,1,2,0.8697
8,177,4,2,2,2,5,2,1,7,7,1,2,1.3095
8,178,4,2,1,2,3,2,0,1,1.1191,1,1,1.2949
8,179,4,2,1,1,3,2,1,1,0.5749,1,1,0.5587
8,180,4,2,1,1,5,2,1,1,0.5799,2,2,0.7557
8,181,4,2,2,1,3,2,0,2,1.4089,2,2,0.8807
8,182,4,2,1,2,4,2,0,1,0.7122,1,1,0.952
8,183,4,2,2,2,6,2,1,2,0.9571,2,2,0.813
8,184,4,2,1,1,6,2,1,1,0.8314,2,1,1.0711
8,185,4,2,1,1,5,1,1,1,0.9947,2,2,0.8504
8,186,4,2,1,1,2,2,1,1,0.6937,1,1,0.7415
8,187,4,2,2,1,4,1,0,2,0.8474,2,2,0.7672
8,188,4,2,1,1,3,1,1,1,0.8849,2,1,1.0607
8,189,4,2,1,2,6,2,0,1,0.8562,1,1,0.776
8,190,4,2,1,2,6,1,0,1,0.8296,2,1,1.0054
8,191,4,2,2,1,3,1,0,2,0.9356,2,1,0.7914
8,192,4,2,2,2,6,1,1,2,0.9333,1,1,0.7251
9,1,1,1,2,2,2,2,1,2,1.0041,2,7,7
9,2,1,1,2,2,4,2,1,2,0.608,2,7,7
9,3,1,1,2,1,6,1,0,2,0.6472,2,7,7
9,4,1,1,2,1,3,2,0,2,0.6276,2,7,7
9,5,1,1,1,2,3,2,0,1,0.5793,2,7,7
9,6,1,1,2,1,2,1,0,2,0.706,1,7,7
9,7,1,1,1,2,1,1,0,1,0.6395,1,7,7
9,8,1,1,2,2,4,1,1,2,0.5911,1,7,7
9,9,1,1,1,2,3,1,0,1,0.5781,1,7,7
9,10,1,1,2,1,2,2,0,2,0.646,2,7,7
9,11,1,1,1,1,6,2,1,1,0.7021,1,7,7
9,12,1,1,1,1,3,2,1,1,0.5832,2,7,7
9,13,1,1,1,2,2,1,0,1,0.582,1,7,7
9,14,1,1,2,1,4,2,0,2,0.7845,2,7,7
9,15,1,1,2,1,5,2,0,2,0.595,2,7,7
9,16,1,1,2,2,1,2,1,2,0.5938,1,7,7
9,17,1,1,1,1,5,1,1,1,0.5808,2,7,7
9,18,1,1,1,1,5,2,1,1,0.5038,1,7,7
9,19,1,1,1,2,6,2,0,1,0.5091,2,7,7
9,20,1,1,2,1,4,1,0,2,0.6543,2,7,7
9,21,1,1,2,1,6,2,0,2,0.8384,1,7,7
9,22,1,1,2,2,2,1,1,2,0.5784,1,7,7
9,23,1,1,1,1,2,1,1,1,0.5771,2,7,7
9,24,1,1,2,2,6,2,1,2,0.5641,2,7,7
9,25,1,1,1,1,2,2,1,1,0.76,1,7,7
9,26,1,1,1,1,6,1,1,1,0.5823,1,7,7
9,27,1,1,1,1,1,2,1,1,0.5811,1,7,7
9,28,1,1,1,1,4,2,1,1,0.5798,1,7,7
9,29,1,1,1,2,2,2,0,1,0.7066,2,7,7
9,30,1,1,1,2,1,2,0,1,0.5119,1,7,7
9,31,1,1,2,1,1,2,0,2,0.5173,2,7,7
9,32,1,1,1,2,5,2,0,1,0.8191,2,7,7
9,33,1,1,1,2,5,1,0,1,0.5185,2,7,7
9,34,1,1,2,2,5,2,1,2,0.5121,2,7,7
9,35,1,1,1,2,4,1,0,1,0.5815,1,7,7
9,36,1,1,1,1,1,1,1,1,0.528,1,7,7
9,37,1,1,2,2,3,2,1,2,0.5098,1,7,7
9,38,1,1,1,2,6,1,0,1,0.7712,1,7,7
9,39,1,1,2,1,1,1,0,2,0.7737,2,7,7
9,40,1,1,2,2,1,1,1,2,0.4444,2,7,7
9,41,1,1,2,1,5,1,0,2,0.7764,1,7,7
9,42,1,1,2,2,6,1,1,2,0.5111,1,7,7
9,43,1,1,1,2,4,2,0,1,0.6446,1,7,7
9,44,1,1,1,1,4,1,1,1,0.5205,1,7,7
9,45,1,1,1,1,3,1,1,1,0.5898,1,7,7
9,46,1,1,2,2,5,1,1,2,0.5885,2,7,7
9,47,1,1,2,1,3,1,0,2,0.7036,2,7,7
9,48,1,1,2,2,3,1,1,2,0.4566,2,7,7
9,49,2,2,2,2,5,2,1,2,0.9678,2,2,0.6955
9,50,2,2,1,2,5,2,0,1,1.0758,1,1,0.8036
9,51,2,2,1,2,2,1,0,1,0.8337,1,1,0.6895
9,52,2,2,2,2,6,2,1,2,0.7851,1,1,0.6409
9,53,2,2,2,2,5,1,1,2,0.7717,1,1,0.7555
9,54,2,2,1,1,6,1,1,1,0.8327,1,1,0.6885
9,55,2,2,2,1,2,1,0,2,0.8414,1,1,0.6332
9,56,2,2,1,1,2,2,1,1,0.9039,2,2,0.6957
9,57,2,2,2,2,3,1,1,2,0.8199,2,1,0.8037
9,58,2,2,2,1,1,2,0,2,1.0619,1,2,0.8536
9,59,2,2,2,1,2,2,0,2,0.8205,2,2,0.9963
9,60,2,2,2,2,6,1,1,2,0.7742,2,1,0.9499
9,61,2,2,2,1,4,1,0,2,0.7469,2,1,0.9867
9,62,2,2,2,1,6,1,0,2,0.8646,1,1,0.8484
9,63,2,2,1,2,1,1,0,1,1.0117,1,1,0.8675
9,64,2,2,2,1,4,2,0,2,0.9197,2,2,0.4555
9,65,2,2,2,1,3,1,0,2,0.8386,2,2,0.5664
9,66,2,2,2,2,1,2,1,2,0.6399,2,2,0.5596
9,67,2,2,1,1,3,2,1,1,0.9009,1,2,0.5646
9,68,2,2,1,1,5,2,1,1,0.7381,1,1,1.1699
9,69,2,2,2,2,2,2,1,2,0.8235,1,1,0.8713
9,70,2,2,2,2,2,1,1,2,0.8309,1,1,0.7506
9,71,2,2,1,2,4,1,0,1,0.7638,1,1,1.1956
9,72,2,2,1,1,6,2,1,1,0.7618,2,2,0.6175
9,73,2,2,1,2,5,1,0,1,0.7079,2,2,0.4997
9,74,2,2,2,2,3,2,1,2,0.8357,2,2,0.9475
9,75,2,2,2,1,5,2,0,2,0.7725,1,1,0.8843
9,76,2,2,1,2,3,2,0,1,0.8203,2,2,0.5481
9,77,2,2,1,2,3,1,0,1,0.709,2,2,0.6288
9,78,2,2,1,2,2,2,0,1,0.8237,1,1,0.9355
9,79,2,2,1,1,2,1,1,1,0.6324,2,2,0.5522
9,80,2,2,2,2,1,1,1,2,0.8177,1,1,0.7374
9,81,2,2,2,2,4,1,1,2,0.7742,1,2,0.886
9,82,2,2,1,1,1,1,1,1,0.9338,2,1,0.8535
9,83,2,2,1,1,4,1,1,1,0.7446,2,1,0.7924
9,84,2,2,2,2,4,2,1,2,0.7541,2,2,0.6739
9,85,2,2,2,1,1,1,0,2,1.0777,2,1,1.1255
9,86,2,2,1,2,4,2,0,1,0.8739,2,2,0.9217
9,87,2,2,2,1,6,2,0,2,0.8629,1,1,1.1027
9,88,2,2,1,1,1,2,1,1,1.4029,2,1,0.8107
9,89,2,2,2,1,3,2,0,2,0.8768,2,2,0.7326
9,90,2,2,1,2,6,1,0,1,1.0254,1,1,1.5211
9,91,2,2,1,1,5,1,1,1,0.8336,2,1,0.8813
9,92,2,2,1,1,4,2,1,1,0.7254,1,1,0.7091
9,93,2,2,1,2,1,2,0,1,0.7576,1,1,0.6774
9,94,2,2,1,2,6,2,0,1,0.7612,1,1,0.7451
9,95,2,2,2,1,5,1,0,2,0.8509,1,1,0.7707
9,96,2,2,1,1,3,1,1,1,0.6441,2,2,1.0119
9,97,3,2,1,2,1,2,0,1,0.8043,1,2,0.9801
9,98,3,2,1,2,1,1,0,1,0.6778,2,2,1.1095
9,99,3,2,1,2,6,1,0,1,0.8338,1,1,1.0735
9,100,3,2,2,2,4,1,1,2,0.7691,1,1,0.9448
9,101,3,2,1,2,2,2,0,1,0.822,1,1,0.8698
9,102,3,2,1,1,1,2,1,1,0.6425,2,2,0.6263
9,103,3,2,2,2,4,2,1,2,0.7572,1,1,0.869
9,104,3,2,2,2,5,2,1,2,0.724,2,2,0.5798
9,105,3,2,1,2,4,2,0,1,0.7695,2,2,0.8813
9,106,3,2,1,2,5,1,0,1,0.701,2,2,0.8128
9,107,3,2,1,1,2,1,1,1,0.5752,2,2,1.391
9,108,3,2,1,1,3,1,1,1,0.5769,1,2,0.6246
9,109,3,2,1,1,4,2,1,1,0.6635,2,2,1.3513
9,110,3,2,1,1,5,1,1,1,0.6011,1,1,1.0329
9,111,3,2,1,1,3,2,1,1,0.9675,1,1,0.8233
9,112,3,2,1,2,3,1,0,1,0.6261,2,2,0.6099
9,113,3,2,2,1,4,2,0,2,0.8401,1,2,0.7598
9,114,3,2,1,2,2,1,0,1,1.2048,2,2,1.3166
9,115,3,2,2,2,1,1,1,2,0.893,2,2,2.3488
9,116,3,2,1,2,6,2,0,1,0.8546,2,2,1.2863
9,117,3,2,2,2,2,2,1,2,0.6303,2,2,0.5501
9,118,3,2,1,2,3,2,0,2,0.6993,1,7,7
9,119,3,2,2,2,6,1,1,2,0.868,2,2,0.6598
9,120,3,2,1,2,4,1,0,1,0.9121,2,2,0.5119
9,121,3,2,2,1,1,1,0,2,0.6963,1,1,1.1921
9,122,3,2,2,2,6,2,1,2,0.7582,1,1,0.87
9,123,3,2,2,2,2,1,1,2,0.7655,2,2,0.4933
9,124,3,2,1,1,6,1,1,1,0.7013,1,1,0.8772
9,125,3,2,1,2,5,2,0,1,0.7727,1,2,0.8845
9,126,3,2,1,1,1,1,1,1,0.7403,2,2,0.7881
9,127,3,2,2,1,5,2,0,2,0.8299,2,2,0.6218
9,128,3,2,2,1,3,1,0,2,0.7762,2,2,0.5679
9,129,3,2,2,1,6,2,0,2,0.7863,1,1,0.8981
9,130,3,2,2,2,3,1,1,2,0.6944,1,1,1.0622
9,131,3,2,1,1,4,1,1,2,0.8217,2,2,0.6623
9,132,3,2,2,1,4,1,0,2,1.1419,2,2,0.6136
9,133,3,2,2,2,1,2,1,2,0.6452,1,1,1.397
9,134,3,2,2,1,2,1,0,2,0.8388,1,1,0.8226
9,135,3,2,2,1,3,2,0,2,0.8292,2,2,0.941
9,136,3,2,1,1,2,2,1,1,0.8822,1,1,1.378
9,137,3,2,2,2,5,1,1,2,0.7677,2,2,1.1994
9,138,3,2,1,1,6,2,1,2,0.9574,1,1,0.9129
9,139,3,2,2,1,2,2,0,2,0.7731,2,2,0.8209
9,140,3,2,1,1,5,2,1,2,0.7753,1,1,1.1632
9,141,3,2,2,2,3,2,1,2,0.7293,1,1,0.9691
9,142,3,2,2,1,5,1,0,2,0.7065,1,2,1.0743
9,143,3,2,2,1,1,2,0,2,1.5386,1,1,1.2663
9,144,3,2,2,1,6,1,0,2,1.2099,2,2,0.8736
9,145,4,1,2,1,2,2,0,2,0.607,1,7,7
9,146,4,1,1,2,2,2,0,1,0.7506,1,7,7
9,147,4,1,2,2,2,1,1,2,0.5207,2,7,7
9,148,4,1,2,1,1,2,0,2,0.6305,2,7,7
9,149,4,1,2,1,1,1,0,2,0.5705,1,7,7
9,150,4,1,2,1,6,2,0,2,0.581,2,7,7
9,151,4,1,1,1,6,1,1,1,0.5157,1,7,7
9,152,4,1,2,2,4,1,1,2,0.538,1,7,7
9,153,4,1,2,2,1,1,1,2,0.5839,1,7,7
9,154,4,1,2,1,6,1,0,2,0.5708,2,7,7
9,155,4,1,2,2,2,2,1,2,0.5579,2,7,7
9,156,4,1,2,1,5,2,0,2,0.5683,1,7,7
9,157,4,1,1,1,2,1,1,1,0.5789,2,7,7
9,158,4,1,2,2,4,2,1,2,0.5777,1,7,7
9,159,4,1,1,2,1,2,0,1,0.6404,2,7,7
9,160,4,1,1,2,1,1,0,1,0.7083,1,7,7
9,161,4,1,2,1,2,1,0,2,0.7057,2,7,7
9,162,4,1,1,2,5,1,0,1,0.575,2,7,7
9,163,4,1,2,1,4,2,0,2,0.8937,1,7,7
9,164,4,1,1,1,4,1,1,1,0.5918,2,7,7
9,165,4,1,2,2,1,2,1,2,0.503,1,7,7
9,166,4,1,1,2,5,2,0,1,0.7003,1,7,7
9,167,4,1,1,2,4,1,0,1,0.5056,2,7,7
9,168,4,1,2,1,5,1,0,2,0.5633,2,7,7
9,169,4,1,1,1,1,1,1,2,0.7136,1,7,7
9,170,4,1,2,2,5,1,1,2,0.6189,1,7,7
9,171,4,1,1,2,2,1,0,1,0.5824,1,7,7
9,172,4,1,2,2,3,2,1,2,0.5811,2,7,7
9,173,4,1,2,2,3,1,1,2,0.5159,1,7,7
9,174,4,1,1,2,3,1,0,1,0.5213,2,7,7
9,175,4,1,1,1,4,2,1,1,0.5671,2,7,7
9,176,4,1,1,1,1,2,1,1,0.5658,1,7,7
9,177,4,1,2,2,5,2,1,2,0.5124,1,7,7
9,178,4,1,1,2,3,2,0,1,0.7097,1,7,7
9,179,4,1,1,1,3,2,1,1,0.4393,1,7,7
9,180,4,1,1,1,5,2,1,1,0.5035,2,7,7
9,181,4,1,2,1,3,2,0,2,0.5846,2,7,7
9,182,4,1,1,2,4,2,0,1,0.5194,1,7,7
9,183,4,1,2,2,6,2,1,2,0.513,2,7,7
9,184,4,1,1,1,6,2,1,2,0.5065,2,7,7
9,185,4,1,1,1,5,1,1,1,0.4957,2,7,7
9,186,4,1,1,1,2,2,1,1,0.5768,1,7,7
9,187,4,1,2,1,4,1,0,2,0.6565,2,7,7
9,188,4,1,1,1,3,1,1,1,0.5729,2,7,7
9,189,4,1,1,2,6,2,0,1,0.7114,1,7,7
9,190,4,1,1,2,6,1,0,1,0.505,2,7,7
9,191,4,1,2,1,3,1,0,2,0.6383,2,7,7
9,192,4,1,2,2,6,1,1,2,0.7703,1,7,7
10,1,1,2,2,2,3,2,1,2,0.9857,2,1,0.9694
10,2,1,2,2,1,3,2,0,2,1.3829,2,2,1.2387
10,3,1,2,2,2,1,2,1,2,0.9614,1,1,0.8813
10,4,1,2,2,2,2,1,1,2,0.765,2,1,1.1968
10,5,1,2,1,2,5,1,0,1,1.3867,1,1,1.0505
10,6,1,2,1,2,5,2,0,1,1.0138,2,1,0.9335
10,7,1,2,1,2,2,1,0,1,1.1902,1,1,1.11
10,8,1,2,1,2,3,1,0,1,1.183,1,1,0.7188
10,9,1,2,2,1,6,2,0,1,0.8313,1,1,0.7881
10,10,1,2,2,1,3,1,0,2,1.086,2,1,1.6458
10,11,1,2,2,2,3,1,1,2,1.0568,2,2,1.2326
10,12,1,2,1,2,4,1,0,1,1.0312,1,1,0.8869
10,13,1,2,1,1,2,2,1,2,1.4107,1,1,1.9953
10,14,1,2,1,2,4,2,0,1,1.1571,1,1,1.1409
10,15,1,2,1,1,2,1,1,1,1.1498,2,1,0.9415
10,16,1,2,2,2,4,1,1,2,1.1748,2,2,1.0305
10,17,1,2,2,2,5,2,1,2,1.0931,1,1,0.8209
10,18,1,2,2,2,1,1,1,2,1.1593,1,1,1.207
10,19,1,2,1,1,6,2,1,1,1.0291,1,1,1.0129
10,20,1,2,2,2,6,2,1,2,1.0755,2,2,0.6753
10,21,1,2,1,1,3,1,1,1,1.0909,2,2,0.9467
10,22,1,2,2,1,2,2,0,2,1.0916,1,2,1.0114
10,23,1,2,2,1,5,1,0,2,1.1857,2,2,0.9135
10,24,1,2,1,2,1,1,0,1,1.018,2,2,1.0658
10,25,1,2,2,1,4,2,0,2,1.2093,2,2,1.4491
10,26,1,2,1,1,1,1,1,1,1.0763,2,2,0.7401
10,27,1,2,1,1,5,2,1,1,1.0733,2,2,1.6971
10,28,1,2,2,2,6,1,1,2,1.1413,1,1,0.997
10,29,1,2,2,1,5,2,0,2,1.4032,1,1,1.1309
10,30,1,2,1,2,6,1,0,1,1.1046,1,1,0.9604
10,31,1,2,2,1,2,1,0,2,0.9656,2,1,1.3333
10,32,1,2,1,2,2,2,0,1,1.382,1,1,0.8538
10,33,1,2,1,2,6,2,0,1,1.3489,2,2,1.0766
10,34,1,2,2,1,6,1,0,2,1.4762,1,1,2.036
10,35,1,2,1,1,5,1,1,1,1.0226,1,1,0.8784
10,36,1,2,2,2,4,2,1,2,1.047,1,1,0.9027
10,37,1,2,1,1,4,1,1,1,0.8387,2,2,0.7585
10,38,1,2,2,1,4,1,0,2,1.2837,2,2,1.2675
10,39,1,2,1,2,1,2,0,1,1.1588,2,2,0.9505
10,40,1,2,2,1,1,2,0,2,0.7755,1,1,0.8873
10,41,1,2,2,2,5,1,1,2,1.475,1,1,0.8828
10,42,1,2,1,1,6,1,1,1,0.9115,1,1,1.5354
10,43,1,2,1,2,3,2,0,1,1.2722,2,2,0.744
10,44,1,2,1,1,4,2,1,1,1.2692,1,1,0.805
10,45,1,2,2,1,1,1,0,1,1.1551,2,7,7
10,46,1,2,1,1,3,2,1,1,1.0254,1,1,0.8172
10,47,1,2,1,1,1,2,1,1,1.3475,2,2,0.7553
10,48,1,2,2,2,2,2,1,2,1.1526,2,2,1.0723
10,49,2,1,2,2,6,1,1,2,1.152,1,7,7
10,50,2,1,2,2,2,1,1,2,0.9163,2,7,7
10,51,2,1,1,2,3,2,0,1,1.2661,1,7,7
10,52,2,1,2,1,6,2,0,2,0.8384,1,7,7
10,53,2,1,2,1,1,2,0,2,0.8226,2,7,7
10,54,2,1,2,1,2,1,0,2,1.2142,2,7,7
10,55,2,1,2,1,4,1,0,2,0.7056,2,7,7
10,56,2,1,2,2,5,2,1,2,0.639,1,7,7
10,57,2,1,1,1,1,2,1,1,0.5671,1,7,7
10,58,2,1,1,2,6,1,0,1,0.7579,1,7,7
10,59,2,1,1,2,2,2,0,1,0.7082,2,7,7
10,60,2,1,2,1,6,1,0,2,0.7342,2,7,7
10,61,2,1,2,2,5,1,1,2,0.644,1,7,7
10,62,2,1,1,1,2,1,1,1,0.6479,2,7,7
10,63,2,1,2,2,4,1,1,2,0.6283,1,7,7
10,64,2,1,1,1,3,2,1,1,0.661,2,7,7
10,65,2,1,1,2,4,1,0,1,0.6296,1,7,7
10,66,2,1,1,2,6,2,0,1,0.8255,1,7,7
10,67,2,1,1,2,2,1,0,1,0.7052,2,7,7
10,68,2,1,1,1,4,2,1,1,0.6385,1,7,7
10,69,2,1,2,1,1,1,0,2,1.3465,2,7,7
10,70,2,1,1,1,6,2,1,1,0.6444,2,7,7
10,71,2,1,2,1,4,2,0,2,0.7646,2,7,7
10,72,2,1,2,1,2,2,0,2,0.8193,1,7,7
10,73,2,1,2,2,1,1,1,2,0.571,1,7,7
10,74,2,1,1,1,2,2,1,1,0.5698,2,7,7
10,75,2,1,1,1,5,2,1,1,0.6208,1,7,7
10,76,2,1,1,2,1,1,0,1,0.5724,2,7,7
10,77,2,1,2,1,3,2,0,2,0.711,1,7,7
10,78,2,1,1,2,4,2,0,1,0.6443,2,7,7
10,79,2,1,2,2,6,2,1,2,0.7696,1,7,7
10,80,2,1,1,1,1,1,1,1,0.5044,2,7,7
10,81,2,1,2,2,4,2,1,2,0.6377,1,7,7
10,82,2,1,2,2,1,2,1,2,0.7697,1,7,7
10,83,2,1,2,1,5,2,0,2,0.6442,2,7,7
10,84,2,1,2,2,3,2,1,2,0.4561,2,7,7
10,85,2,1,1,1,3,1,1,1,0.5203,1,7,7
10,86,2,1,1,1,5,1,1,2,0.5021,1,7,7
10,87,2,1,1,2,3,1,0,1,0.6715,1,7,7
10,88,2,1,2,1,5,1,0,2,0.6284,2,7,7
10,89,2,1,1,1,4,1,1,1,0.6323,2,7,7
10,90,2,1,2,1,3,1,0,2,1.544,2,7,7
10,91,2,1,1,2,5,2,0,7,7,2,7,7
10,92,2,1,1,1,6,1,1,1,0.8008,1,7,7
10,93,2,1,1,2,5,1,0,1,0.704,2,7,7
10,94,2,1,1,2,1,2,0,1,0.7653,1,7,7
10,95,2,1,2,2,3,1,1,2,0.6281,1,7,7
10,96,2,1,2,2,2,2,1,2,0.696,2,7,7
10,97,3,1,1,2,4,1,0,1,1.1419,1,7,7
10,98,3,1,2,1,5,2,0,2,1.2329,2,7,7
10,99,3,1,1,2,5,1,0,1,0.7125,2,7,7
10,100,3,1,2,2,5,1,1,2,0.8378,1,7,7
10,101,3,1,2,1,5,1,0,2,0.6822,1,7,7
10,102,3,1,2,2,4,2,1,2,0.9473,1,7,7
10,103,3,1,2,2,2,2,1,2,0.6858,2,7,7
10,104,3,1,2,1,1,2,0,2,0.6309,2,7,7
10,105,3,1,2,1,4,2,0,2,0.5826,2,7,7
10,106,3,1,1,1,5,2,1,1,0.6453,1,7,7
10,107,3,1,1,1,2,1,1,1,0.6493,1,7,7
10,108,3,1,1,2,4,2,0,1,0.7695,1,7,7
10,109,3,1,1,2,1,2,0,1,0.5969,2,7,7
10,110,3,1,1,2,3,2,0,1,0.5721,2,7,7
10,111,3,1,2,1,3,2,0,2,0.6467,1,7,7
10,112,3,1,1,2,2,2,0,1,0.6558,2,7,7
10,113,3,1,1,1,6,1,1,1,0.5199,1,7,7
10,114,3,1,1,1,3,1,1,1,0.6415,2,7,7
10,115,3,1,2,1,2,2,0,2,0.7094,1,7,7
10,116,3,1,1,1,4,1,1,1,0.631,2,7,7
10,117,3,1,2,2,4,1,1,2,0.6989,1,7,7
10,118,3,1,1,1,3,2,1,1,0.6322,2,7,7
10,119,3,1,2,1,1,1,0,2,1.2879,2,7,7
10,120,3,1,1,1,4,2,1,1,0.7139,2,7,7
10,121,3,1,2,2,5,2,1,2,0.6355,1,7,7
10,122,3,1,2,2,1,1,1,1,0.6276,1,7,7
10,123,3,1,2,1,3,1,0,2,1.1914,2,7,7
10,124,3,1,1,2,2,1,0,1,0.6423,1,7,7
10,125,3,1,1,2,3,1,0,1,1.2222,1,7,7
10,126,3,1,1,2,1,1,0,1,0.7777,1,7,7
10,127,3,1,2,2,6,2,1,2,0.8964,2,7,7
10,128,3,1,2,1,6,1,0,2,0.6415,2,7,7
10,129,3,1,2,2,3,1,1,2,0.9654,1,7,7
10,130,3,1,1,2,6,1,0,1,0.5929,1,7,7
10,131,3,1,1,2,6,2,0,1,1.0042,2,7,7
10,132,3,1,2,2,3,2,1,2,0.5676,1,7,7
10,133,3,1,2,2,6,1,1,2,0.5664,2,7,7
10,134,3,1,2,1,2,1,0,2,0.6932,1,7,7
10,135,3,1,2,2,2,1,1,2,0.6382,1,7,7
10,136,3,1,1,1,1,1,1,1,0.5142,2,7,7
10,137,3,1,2,1,6,2,0,2,0.9036,2,7,7
10,138,3,1,1,2,5,2,0,1,0.6486,1,7,7
10,139,3,1,1,1,1,2,1,1,0.8328,2,7,7
10,140,3,1,2,2,1,2,1,2,0.6485,2,7,7
10,141,3,1,1,1,2,2,1,1,0.7686,2,7,7
10,142,3,1,2,1,4,1,0,2,1.3472,1,7,7
10,143,3,1,1,1,5,1,1,1,0.6334,1,7,7
10,144,3,1,1,1,6,2,1,1,0.8292,2,7,7
10,145,4,2,2,1,5,1,0,2,1.2336,1,7,7
10,146,4,2,2,1,3,1,0,2,0.9562,2,2,0.684
10,147,4,2,1,2,6,2,0,1,0.7038,1,2,1.5195
10,148,4,2,2,2,4,1,1,2,1.4087,2,2,1.0725
10,149,4,2,1,1,1,2,1,1,1.024,1,1,1.0078
10,150,4,2,1,1,4,1,1,1,1.0299,1,1,1.1417
10,151,4,2,2,1,4,1,0,2,1.0226,1,1,1.3904
10,152,4,2,2,1,6,2,0,2,1.1522,2,1,1.008
10,153,4,2,2,1,5,2,0,2,0.9264,2,2,0.9102
10,154,4,2,1,2,4,1,0,1,0.9506,2,2,1.0624
10,155,4,2,1,2,1,2,0,1,1.0779,1,1,1.1898
10,156,4,2,1,1,5,1,1,1,1.0288,1,1,1.5885
10,157,4,2,2,1,2,1,0,2,1.1504,2,2,0.7502
10,158,4,2,1,2,3,1,0,1,0.9554,1,1,1.3871
10,159,4,2,2,2,6,2,1,2,1.021,1,1,1.1968
10,160,4,2,2,2,2,2,1,2,1.0306,2,2,0.9504
10,161,4,2,2,2,3,1,1,2,1.0313,1,1,0.8872
10,162,4,2,1,1,3,1,1,1,1.1549,1,1,1.1387
10,163,4,2,1,2,5,2,0,1,1.0314,2,1,0.8232
10,164,4,2,2,1,4,2,0,2,1.0578,2,2,0.8496
10,165,4,2,2,1,6,1,0,2,1.2858,2,2,1.6536
10,166,4,2,1,1,3,2,1,1,1.0808,2,2,0.8726
10,167,4,2,2,2,4,2,1,2,0.9484,1,1,0.6122
10,168,4,2,2,2,3,2,1,2,1.0748,1,1,1.4426
10,169,4,2,1,1,6,2,1,1,0.9536,2,2,0.6174
10,170,4,2,1,1,1,1,1,2,1.0278,1,7,7
10,171,4,2,1,1,4,2,1,1,0.9663,2,2,0.7581
10,172,4,2,1,1,6,1,1,1,1.0273,2,1,1.0111
10,173,4,2,1,1,5,2,1,1,0.8654,1,1,1.1692
10,174,4,2,2,1,2,2,0,2,1.0906,1,1,1.3944
10,175,4,2,2,1,3,2,0,2,1.0165,2,2,0.8082
10,176,4,2,1,2,5,1,0,1,1.1349,2,2,0.6706
10,177,4,2,1,2,2,1,0,1,1.1384,2,2,0.7382
10,178,4,2,1,2,1,1,0,1,1.1472,1,1,0.811
10,179,4,2,1,2,6,1,0,1,1.0096,1,2,0.4814
10,180,4,2,2,2,1,2,1,2,1.4294,1,1,1.0932
10,181,4,2,1,1,2,2,1,1,1.1375,1,1,0.9932
10,182,4,2,2,2,2,1,1,2,0.9918,2,1,1.0396
10,183,4,2,2,2,5,2,1,2,0.9344,2,2,0.8543
10,184,4,2,2,2,1,1,1,2,1.0293,1,1,0.8211
10,185,4,2,2,2,5,1,1,2,0.8394,2,2,0.8232
10,186,4,2,1,1,2,1,1,1,1.1498,2,2,0.8136
10,187,4,2,1,2,4,2,0,1,1.024,2,1,1.0078
10,188,4,2,1,2,3,2,0,1,0.8909,1,1,1.2586
10,189,4,2,2,1,1,2,0,2,1.0741,1,1,0.9939
10,190,4,2,2,2,6,1,1,2,1.144,2,1,1.5118
10,191,4,2,2,1,1,1,0,2,1.1163,2,2,0.844
10,192,4,2,1,2,2,2,0,1,0.972,1,1,0.6998
11,1,1,1,1,1,3,2,1,1,0.5672,2,7,7
11,2,1,1,1,2,4,2,0,1,0.4497,2,7,7
11,3,1,1,2,1,1,1,0,2,0.6419,2,7,7
11,4,1,1,2,2,5,1,1,2,0.4538,1,7,7
11,5,1,1,1,2,5,1,0,1,0.454,2,7,7
11,6,1,1,2,2,4,1,1,2,0.6226,2,7,7
11,7,1,1,2,1,4,2,0,2,0.6383,1,7,7
11,8,1,1,2,2,3,2,1,2,0.4907,1,7,7
11,9,1,1,2,2,6,1,1,1,0.3916,1,7,7
11,10,1,1,1,1,2,1,1,1,0.4226,1,7,7
11,11,1,1,2,2,6,2,1,2,0.5103,2,7,7
11,12,1,1,1,2,2,1,0,1,0.5797,2,7,7
11,13,1,1,2,2,2,1,1,1,0.3865,2,7,7
11,14,1,1,1,2,1,1,0,1,0.6213,2,7,7
11,15,1,1,1,1,1,2,1,1,0.5847,1,7,7
11,16,1,1,2,1,6,1,0,2,0.5835,2,7,7
11,17,1,1,2,1,5,1,0,2,0.4543,1,7,7
11,18,1,1,2,1,5,2,0,2,0.5184,1,7,7
11,19,1,1,1,1,2,2,1,1,0.512,2,7,7
11,20,1,1,1,2,3,1,0,1,0.6454,1,7,7
11,21,1,1,2,1,2,2,0,2,0.5853,2,7,7
11,22,1,1,1,2,5,2,0,1,0.6481,1,7,7
11,23,1,1,1,2,6,1,0,1,0.5762,1,7,7
11,24,1,1,2,2,3,1,1,2,0.511,2,7,7
11,25,1,1,2,1,3,1,0,1,0.4524,2,7,7
11,26,1,1,1,2,1,2,0,1,0.4128,1,7,7
11,27,1,1,1,1,5,2,1,1,0.5005,2,7,7
11,28,1,1,1,1,6,1,1,2,0.5059,1,7,7
11,29,1,1,2,2,1,1,1,2,0.4715,1,7,7
11,30,1,1,2,1,6,2,0,1,0.5122,2,7,7
11,31,1,1,1,2,3,2,0,1,0.5535,2,7,7
11,32,1,1,1,2,4,1,0,1,0.628,1,7,7
11,33,1,1,2,2,5,2,1,2,0.3877,2,7,7
11,34,1,1,1,1,6,2,1,1,0.5107,2,7,7
11,35,1,1,1,1,4,1,1,2,0.6441,2,7,7
11,36,1,1,2,2,1,2,1,2,0.62,2,7,7
11,37,1,1,1,1,3,1,1,1,0.4724,2,7,7
11,38,1,1,1,1,4,2,1,1,0.5132,1,7,7
11,39,1,1,2,1,1,2,0,2,0.6464,1,7,7
11,40,1,1,2,2,2,2,1,2,0.6386,1,7,7
11,41,1,1,2,1,2,1,0,2,0.5028,1,7,7
11,42,1,1,1,1,5,1,1,1,0.4964,1,7,7
11,43,1,1,1,2,2,2,0,1,0.6297,1,7,7
11,44,1,1,2,2,4,2,1,2,0.6336,1,7,7
11,45,1,1,1,1,1,1,1,1,0.5853,2,7,7
11,46,1,1,1,2,6,2,0,1,0.6481,1,7,7
11,47,1,1,2,1,3,2,0,2,0.5762,2,7,7
11,48,1,1,2,1,4,1,0,2,0.639,1,7,7
11,49,2,2,2,2,5,1,1,2,0.5346,2,1,0.5184
11,50,2,2,2,2,4,1,1,2,0.5168,1,1,0.6926
11,51,2,2,1,2,2,2,0,1,0.5608,1,1,0.6086
11,52,2,2,1,2,2,1,0,1,0.635,2,2,0.6188
11,53,2,2,2,2,3,1,1,2,0.7732,2,2,0.629
11,54,2,2,1,1,1,2,1,1,0.5796,1,1,0.5634
11,55,2,2,2,1,5,2,0,2,0.7008,1,1,0.7486
11,56,2,2,1,2,3,1,0,1,0.5816,2,2,0.5654
11,57,2,2,1,2,6,2,0,1,0.6271,1,1,0.4829
11,58,2,2,2,1,5,1,0,2,0.6269,2,2,0.4187
11,59,2,2,2,2,1,1,1,2,0.5981,1,1,0.5178
11,60,2,2,1,2,6,1,0,1,0.5743,1,1,0.5581
11,61,2,2,2,2,1,2,1,2,0.5154,2,2,0.4991
11,62,2,2,1,2,1,1,0,1,0.6432,1,1,0.499
11,63,2,2,2,1,1,1,0,2,0.6313,2,1,0.9991
11,64,2,2,1,2,4,2,0,1,0.6614,2,2,0.4532
11,65,2,2,2,2,3,2,1,2,0.5046,1,1,0.4883
11,66,2,2,1,2,5,1,0,1,0.5162,1,1,0.6279
11,67,2,2,1,2,4,1,0,1,0.6426,2,2,0.5624
11,68,2,2,1,1,3,2,1,1,0.5196,1,2,0.5674
11,69,2,2,1,2,1,2,0,1,0.4849,1,1,0.4687
11,70,2,2,2,2,2,1,1,1,0.5082,2,2,1.1668
11,71,2,2,2,2,2,2,1,2,0.5813,2,2,0.6291
11,72,2,2,1,1,5,1,1,1,0.504,1,1,0.6797
11,73,2,2,2,1,3,1,0,2,0.5716,1,1,0.5554
11,74,2,2,2,2,6,2,1,2,0.5766,2,2,0.6883
11,75,2,2,2,2,4,2,1,2,0.5161,2,2,0.8199
11,76,2,2,2,1,4,1,0,2,0.5183,2,2,0.5661
11,77,2,2,2,2,6,1,1,2,0.5116,1,1,0.3673
11,78,2,2,2,1,3,2,0,2,0.501,2,2,0.4848
11,79,2,2,1,1,2,1,1,2,0.5649,1,1,0.7166
11,80,2,2,2,2,5,2,1,2,0.4973,2,2,0.5451
11,81,2,2,1,1,6,1,1,1,0.5663,1,1,0.4221
11,82,2,2,2,1,4,2,0,2,0.6367,2,2,0.4925
11,83,2,2,1,1,6,2,1,1,0.5844,2,2,0.5682
11,84,2,2,2,1,1,2,0,1,0.4496,2,2,0.527
11,85,2,2,2,1,6,2,0,2,0.5717,1,2,1.0035
11,86,2,2,1,2,3,2,0,1,0.5548,2,2,0.6666
11,87,2,2,2,1,6,1,0,2,0.6342,2,2,0.49
11,88,2,2,1,1,2,2,1,1,0.506,1,1,0.4258
11,89,2,2,1,1,4,1,1,1,0.5765,2,2,0.4962
11,90,2,2,1,1,1,1,1,1,0.5763,1,1,0.4961
11,91,2,2,2,1,2,2,0,2,0.6401,1,2,0.6879
11,92,2,2,1,1,3,1,1,1,0.6157,2,2,0.4715
11,93,2,2,2,1,2,1,0,2,0.6913,1,2,0.6751
11,94,2,2,1,2,5,2,0,1,0.5036,1,2,0.9994
11,95,2,2,1,1,4,2,1,1,0.5338,1,1,0.6456
11,96,2,2,1,1,5,2,1,1,0.5086,2,2,0.4924
11,97,3,2,2,1,1,1,0,2,0.6032,2,1,0.651
11,98,3,2,1,2,2,2,0,1,0.5501,2,2,0.4699
11,99,3,2,2,1,6,1,0,2,0.5734,2,2,0.6213
11,100,3,2,1,1,3,2,1,1,0.3917,1,1,0.5674
11,101,3,2,2,2,6,2,1,2,0.5011,2,2,0.4209
11,102,3,2,2,2,1,1,1,1,0.4436,2,2,0.5327
11,103,3,2,1,2,6,1,0,2,0.5944,1,1,0.4666
11,104,3,2,1,2,5,1,0,1,0.5179,1,1,0.5017
11,105,3,2,2,1,5,1,0,2,0.4538,1,1,0.4376
11,106,3,2,2,2,6,1,1,2,0.5124,1,2,0.7522
11,107,3,2,1,1,1,1,1,1,0.4174,1,1,0.4652
11,108,3,2,1,2,4,1,0,1,0.5688,2,2,0.6166
11,109,3,2,1,2,1,1,0,1,0.4039,1,1,0.5797
11,110,3,2,2,2,2,2,1,1,0.5016,1,1,0.4039
11,111,3,2,2,2,5,1,1,2,0.5664,2,2,0.4862
11,112,3,2,1,1,4,1,1,1,0.5022,1,1,0.422
11,113,3,2,2,1,2,1,0,2,0.5204,2,1,0.4402
11,114,3,2,2,2,4,2,1,2,0.5511,1,1,0.5989
11,115,3,2,1,1,4,2,1,1,0.509,2,1,0.6208
11,116,3,2,2,2,1,2,1,2,0.4912,2,2,0.475
11,117,3,2,2,2,5,2,1,2,0.5028,1,1,0.6146
11,118,3,2,1,1,1,2,1,1,0.5652,2,2,0.485
11,119,3,2,2,1,3,1,0,2,0.5011,2,2,0.4209
11,120,3,2,1,2,6,2,0,1,0.5075,2,2,0.5553
11,121,3,2,2,1,2,2,0,2,0.7215,2,2,0.9612
11,122,3,2,2,2,3,2,1,2,0.5707,2,2,0.5544
11,123,3,2,2,1,4,1,0,2,0.5639,2,2,0.6757
11,124,3,2,1,1,6,2,1,1,0.6432,2,1,0.371
11,125,3,2,1,2,2,1,0,1,0.6165,1,1,0.5363
11,126,3,2,1,1,5,2,1,1,0.5171,1,1,0.7568
11,127,3,2,1,1,5,1,1,1,0.5141,2,1,0.8818
11,128,3,2,1,2,1,2,0,1,0.6096,1,1,0.4654
11,129,3,2,2,1,3,2,0,1,0.5168,2,1,0.5235
11,130,3,2,2,2,2,1,1,2,0.569,1,1,0.4248
11,131,3,2,1,2,4,2,0,1,0.6277,1,1,0.5475
11,132,3,2,1,1,3,1,1,1,0.5047,1,1,0.4885
11,133,3,2,2,1,5,2,0,2,0.5685,2,2,0.4243
11,134,3,2,1,1,2,2,1,1,0.4992,1,1,0.611
11,135,3,2,2,1,4,2,0,2,0.6373,1,1,0.5572
11,136,3,2,1,2,3,1,0,1,0.5784,1,1,0.4982
11,137,3,2,1,1,6,1,1,1,0.4385,2,2,0.7422
11,138,3,2,1,2,3,2,0,1,0.5752,2,2,0.559
11,139,3,2,2,1,1,2,0,2,0.5803,1,2,0.564
11,140,3,2,2,1,6,2,0,2,0.5455,2,2,0.6573
11,141,3,2,2,2,3,1,1,2,0.4446,1,1,0.8124
11,142,3,2,1,1,2,1,1,1,0.435,1,1,0.5468
11,143,3,2,1,2,5,2,0,1,0.568,2,2,0.5518
11,144,3,2,2,2,4,1,1,2,0.6252,1,1,0.929
11,145,4,1,1,2,5,2,0,1,0.3953,1,7,7
11,146,4,1,2,1,4,2,0,2,0.4543,1,7,7
11,147,4,1,1,1,1,2,1,1,0.3905,2,7,7
11,148,4,1,1,2,6,2,0,2,0.5135,1,7,7
11,149,4,1,2,2,6,2,1,2,0.5549,2,7,7
11,150,4,1,2,1,2,2,0,2,0.4492,2,7,7
11,151,4,1,2,1,5,1,0,2,0.5774,2,7,7
11,152,4,1,2,2,6,1,1,2,0.4364,2,7,7
11,153,4,1,2,1,3,1,0,2,0.5005,2,7,7
11,154,4,1,1,2,1,1,0,2,0.4419,1,7,7
11,155,4,1,1,1,3,2,1,1,0.4781,1,7,7
11,156,4,1,1,2,1,2,0,1,0.507,1,7,7
11,157,4,1,2,2,5,1,1,2,0.3726,1,7,7
11,158,4,1,2,2,1,2,1,2,0.5191,1,7,7
11,159,4,1,2,1,4,1,0,2,0.4487,2,7,7
11,160,4,1,1,2,2,1,0,1,0.5129,2,7,7
11,161,4,1,2,2,2,1,1,2,0.5183,1,7,7
11,162,4,1,1,2,3,1,0,1,0.4479,1,7,7
11,163,4,1,2,1,6,1,0,2,0.64,2,7,7
11,164,4,1,2,2,2,2,1,2,0.5042,2,7,7
11,165,4,1,1,1,5,1,1,1,0.422,2,7,7
11,166,4,1,1,1,1,1,1,1,0.6377,1,7,7
11,167,4,1,1,2,5,1,0,1,0.5019,1,7,7
11,168,4,1,1,2,6,1,0,1,0.5713,2,7,7
11,169,4,1,1,1,6,2,1,1,0.4538,1,7,7
11,170,4,1,2,2,3,1,1,2,0.39,2,7,7
11,171,4,1,1,1,3,1,1,1,0.449,2,7,7
11,172,4,1,2,2,3,2,1,2,0.6412,1,7,7
11,173,4,1,2,2,4,2,1,2,0.5171,2,7,7
11,174,4,1,1,2,4,1,0,1,0.4467,1,7,7
11,175,4,1,1,1,2,1,1,2,0.4991,2,7,7
11,176,4,1,2,1,1,2,0,1,0.4007,1,7,7
11,177,4,1,1,1,6,1,1,1,0.612,1,7,7
11,178,4,1,1,2,4,2,0,1,0.4997,2,7,7
11,179,4,1,2,1,3,2,0,2,0.633,1,7,7
11,180,4,1,1,1,5,2,1,1,0.381,2,7,7
11,181,4,1,2,1,1,1,0,2,0.5157,1,7,7
11,182,4,1,2,2,4,1,1,2,0.5211,1,7,7
11,183,4,1,2,2,1,1,1,2,0.4507,2,7,7
11,184,4,1,2,1,6,2,0,2,0.4509,2,7,7
11,185,4,1,1,1,4,2,1,1,0.4512,1,7,7
11,186,4,1,1,1,4,1,1,1,0.4513,2,7,7
11,187,4,1,2,2,5,2,1,2,0.3874,2,7,7
11,188,4,1,1,1,2,2,1,1,0.5627,1,7,7
11,189,4,1,1,2,3,2,0,1,0.5092,1,7,7
11,190,4,1,2,1,2,1,0,1,0.4388,1,7,7
11,191,4,1,1,2,2,2,0,1,0.411,2,7,7
11,192,4,1,2,1,5,2,0,2,0.3707,2,7,7
12,1,1,2,1,1,5,2,1,1,0.8391,2,1,0.6949
12,2,1,2,2,2,3,1,1,2,1.315,1,1,0.7867
12,3,1,2,2,1,3,2,0,2,1.0324,2,2,0.8882
12,4,1,2,1,1,5,1,1,1,0.9,2,2,0.6277
12,5,1,2,1,1,6,1,1,1,0.5784,2,1,0.6902
12,6,1,2,2,1,5,2,0,2,0.7864,2,2,0.8342
12,7,1,2,2,2,1,2,1,1,0.782,1,2,0.8499
12,8,1,2,1,1,6,2,1,1,0.7933,2,2,0.5851
12,9,1,2,2,2,2,1,1,2,0.763,1,1,0.8107
12,10,1,2,2,2,6,1,1,2,0.8931,2,1,0.8769
12,11,1,2,2,2,1,1,1,2,0.6805,1,2,0.9842
12,12,1,2,1,1,4,1,1,1,0.7459,1,1,0.6017
12,13,1,2,1,1,1,1,1,1,0.7679,2,2,0.5597
12,14,1,2,1,2,1,2,0,1,0.7729,1,1,0.8847
12,15,1,2,2,1,1,1,0,2,0.7684,2,2,0.7522
12,16,1,2,1,2,6,1,0,1,0.7654,1,1,0.6852
12,17,1,2,2,1,2,2,0,1,0.769,2,1,0.7207
12,18,1,2,2,2,3,2,1,2,1.3055,2,2,0.7772
12,19,1,2,1,1,2,1,1,1,0.8309,1,1,0.6867
12,20,1,2,1,2,1,1,0,1,0.8985,2,2,0.6263
12,21,1,2,2,1,6,2,0,2,0.7049,2,2,0.8167
12,22,1,2,1,2,3,1,0,1,0.963,1,1,0.7548
12,23,1,2,1,2,5,2,0,1,0.768,1,1,0.5598
12,24,1,2,2,2,6,2,1,2,0.8371,1,1,0.6288
12,25,1,2,2,2,4,1,1,2,0.7714,1,1,0.5633
12,26,1,2,1,1,4,2,1,1,0.7006,1,1,0.5565
12,27,1,2,1,2,6,2,0,1,0.6939,2,2,1.0618
12,28,1,2,2,1,4,1,0,2,0.8212,2,2,0.741
12,29,1,2,2,1,3,1,0,2,0.7543,1,1,0.5461
12,30,1,2,1,1,1,2,1,1,0.7592,2,2,0.551
12,31,1,2,2,2,4,2,1,2,0.6363,1,1,0.748
12,32,1,2,1,2,3,2,0,1,0.7259,2,1,1.1577
12,33,1,2,1,1,3,1,1,1,0.9349,2,2,0.8547
12,34,1,2,2,1,5,1,0,2,0.9658,2,2,0.5655
12,35,1,2,1,2,4,2,0,1,0.831,1,1,0.8148
12,36,1,2,2,2,5,2,1,2,0.7051,1,2,0.8169
12,37,1,2,2,1,4,2,0,2,0.7955,1,1,0.5873
12,38,1,2,1,2,5,1,0,2,0.7652,2,1,0.845
12,39,1,2,1,2,2,2,0,1,0.8758,2,1,0.6036
12,40,1,2,2,2,5,1,1,2,0.6778,2,2,0.5336
12,41,1,2,2,1,1,2,0,2,0.7063,1,1,0.7541
12,42,1,2,1,1,2,2,1,1,0.7202,1,1,0.896
12,43,1,2,1,2,4,1,0,1,1.0123,1,1,0.612
12,44,1,2,1,1,3,2,1,1,0.6267,1,1,0.5465
12,45,1,2,2,1,2,1,0,2,0.7715,1,1,0.5632
12,46,1,2,2,2,2,2,1,1,0.6367,2,2,1.2298
12,47,1,2,1,2,2,1,0,2,0.8246,1,1,0.8455
12,48,1,2,2,1,6,1,0,2,0.8403,2,1,0.5041
12,49,2,1,2,2,2,1,1,2,1.3593,2,7,7
12,50,2,1,1,2,1,1,0,1,0.7905,1,7,7
12,51,2,1,2,2,6,2,1,2,0.8217,2,7,7
12,52,2,1,2,1,5,2,0,2,0.7771,1,7,7
12,53,2,1,2,2,5,2,1,2,0.7039,2,7,7
12,54,2,1,2,1,3,2,0,2,0.7012,1,7,7
12,55,2,1,1,2,4,2,0,1,0.7103,1,7,7
12,56,2,1,2,2,4,2,1,2,0.7599,1,7,7
12,57,2,1,2,1,5,1,0,2,0.7624,1,7,7
12,58,2,1,1,2,2,1,0,1,0.7648,1,7,7
12,59,2,1,1,1,6,1,1,1,1.0874,2,7,7
12,60,2,1,1,1,5,1,1,1,0.7082,2,7,7
12,61,2,1,1,1,3,2,1,1,0.8335,2,7,7
12,62,2,1,1,2,3,2,0,1,0.7014,2,7,7
12,63,2,1,1,1,4,1,1,1,0.6635,1,7,7
12,64,2,1,2,1,3,1,0,2,0.7601,2,7,7
12,65,2,1,2,2,2,2,1,2,0.7626,1,7,7
12,66,2,1,1,2,5,1,0,1,0.7769,2,7,7
12,67,2,1,1,2,1,2,0,1,0.8198,2,7,7
12,68,2,1,2,2,6,1,1,2,0.9033,2,7,7
12,69,2,1,1,1,2,2,1,1,0.6483,2,7,7
12,70,2,1,1,2,2,2,0,1,0.6928,1,7,7
12,71,2,1,2,1,1,1,0,2,0.7658,1,7,7
12,72,2,1,1,1,1,2,1,1,0.5646,2,7,7
12,73,2,1,2,2,3,1,1,2,0.9474,1,7,7
12,74,2,1,2,2,1,2,1,2,0.5814,2,7,7
12,75,2,1,1,1,6,2,1,1,0.5801,1,7,7
12,76,2,1,2,2,4,1,1,2,0.7709,2,7,7
12,77,2,1,1,1,5,2,1,1,0.7094,2,7,7
12,78,2,1,1,2,4,1,0,1,0.6597,2,7,7
12,79,2,1,2,2,3,2,1,2,0.8843,1,7,7
12,80,2,1,2,1,4,1,0,2,0.7574,1,7,7
12,81,2,1,2,1,1,2,0,2,0.6959,2,7,7
12,82,2,1,2,1,6,2,0,2,0.6932,2,7,7
12,83,2,1,1,2,6,1,0,1,0.7023,1,7,7
12,84,2,1,1,1,4,2,1,1,0.5834,2,7,7
12,85,2,1,1,1,2,1,1,1,0.6462,1,7,7
12,86,2,1,2,2,5,1,1,2,0.5625,1,7,7
12,87,2,1,1,2,5,2,0,1,0.5731,1,7,7
12,88,2,1,2,1,4,2,0,2,0.8278,2,7,7
12,89,2,1,2,1,2,1,0,2,0.5796,1,7,7
12,90,2,1,2,1,6,1,0,2,0.7063,1,7,7
12,91,2,1,2,1,2,2,0,2,0.7677,1,7,7
12,92,2,1,1,2,3,1,0,1,0.6421,2,7,7
12,93,2,1,1,2,6,2,0,1,0.8263,2,7,7
12,94,2,1,1,1,3,1,1,1,0.7582,1,7,7
12,95,2,1,1,1,1,1,1,2,0.5687,2,7,7
12,96,2,1,2,2,1,1,1,2,0.6035,1,7,7
12,97,3,1,2,1,6,1,0,2,1.1875,2,7,7
12,98,3,1,2,1,2,1,0,2,0.5744,1,7,7
12,99,3,1,2,1,2,2,0,2,0.713,1,7,7
12,100,3,1,2,2,4,2,1,2,0.6463,2,7,7
12,101,3,1,1,1,1,2,1,1,0.6267,1,7,7
12,102,3,1,1,2,1,2,0,1,0.6307,2,7,7
12,103,3,1,1,1,3,2,1,1,0.6346,2,7,7
12,104,3,1,1,1,5,2,1,1,0.6267,1,7,7
12,105,3,1,1,1,1,1,1,1,0.5144,1,7,7
12,106,3,1,2,2,3,1,1,2,0.6478,2,7,7
12,107,3,1,1,2,1,1,0,1,0.7563,2,7,7
12,108,3,1,1,1,6,2,1,1,0.8227,2,7,7
12,109,3,1,1,2,6,1,0,1,0.5914,2,7,7
12,110,3,1,1,1,5,1,1,1,0.7585,1,7,7
12,111,3,1,2,2,5,1,1,2,1.081,2,7,7
12,112,3,1,2,2,1,2,1,2,0.7019,1,7,7
12,113,3,1,2,1,4,2,0,2,0.775,2,7,7
12,114,3,1,2,1,4,1,0,2,0.7135,2,7,7
12,115,3,1,1,2,5,2,0,1,0.6468,2,7,7
12,116,3,1,1,1,3,1,1,1,0.639,2,7,7
12,117,3,1,1,2,2,1,0,1,0.9158,1,7,7
12,118,3,1,2,2,1,1,1,2,0.6374,1,7,7
12,119,3,1,1,1,6,1,1,2,0.6295,1,7,7
12,120,3,1,1,1,4,2,1,1,0.5937,1,7,7
12,121,3,1,2,1,3,1,0,2,0.6329,1,7,7
12,122,3,1,2,1,1,2,0,2,0.5729,1,7,7
12,123,3,1,1,2,6,2,0,1,0.7114,2,7,7
12,124,3,1,2,2,4,1,1,2,0.5807,1,7,7
12,125,3,1,1,1,2,1,1,1,0.5795,2,7,7
12,126,3,1,2,2,2,1,1,2,0.6423,2,7,7
12,127,3,1,2,1,1,1,0,2,0.6462,2,7,7
12,128,3,1,2,2,2,2,1,2,0.5743,2,7,7
12,129,3,1,2,1,6,2,0,2,0.6371,1,7,7
12,130,3,1,2,2,3,2,1,2,0.5653,2,7,7
12,131,3,1,1,2,4,1,0,1,0.628,1,7,7
12,132,3,1,1,2,3,1,0,1,0.504,2,7,7
12,133,3,1,1,2,2,2,0,1,0.5093,2,7,7
12,134,3,1,1,2,4,2,0,1,0.6949,2,7,7
12,135,3,1,2,2,5,2,1,2,0.64,2,7,7
12,136,3,1,2,2,6,1,1,2,0.5799,1,7,7
12,137,3,1,1,2,3,2,0,1,0.5787,1,7,7
12,138,3,1,1,1,4,1,1,1,0.6415,1,7,7
12,139,3,1,1,1,2,2,1,1,0.8896,1,7,7
12,140,3,1,2,1,5,1,0,2,0.7628,1,7,7
12,141,3,1,2,1,5,2,0,2,0.7652,2,7,7
12,142,3,1,2,1,3,2,0,2,0.6919,1,7,7
12,143,3,1,2,2,6,2,1,2,0.5731,1,7,7
12,144,3,1,1,2,5,1,0,1,0.624,1,7,7
12,145,4,2,1,2,6,1,0,1,1.1743,2,2,0.6461
12,146,4,2,1,1,6,1,1,1,0.8226,2,2,0.6144
12,147,4,2,1,2,4,1,0,1,0.7687,1,1,0.7525
12,148,4,2,1,2,5,2,0,1,0.7017,2,1,1.0055
12,149,4,2,2,1,6,2,0,2,0.8077,1,1,0.5995
12,150,4,2,1,1,5,2,1,1,0.7016,1,1,0.6214
12,151,4,2,2,1,4,1,0,2,0.7758,1,1,0.6956
12,152,4,2,1,2,6,2,0,1,0.6397,1,1,0.5594
12,153,4,2,1,1,5,1,1,1,0.6968,2,2,0.6166
12,154,4,2,2,2,2,1,1,2,0.7593,1,2,0.615
12,155,4,2,1,2,1,2,0,1,0.7584,1,1,0.5502
12,156,4,2,1,2,3,2,0,1,0.7634,2,2,0.7472
12,157,4,2,1,2,2,1,0,1,0.6611,2,2,0.6449
12,158,4,2,1,2,4,2,0,1,0.6477,1,1,0.6315
12,159,4,2,1,1,1,1,1,1,0.8381,1,1,0.5659
12,160,4,2,2,1,1,2,0,2,0.7674,2,2,0.6232
12,161,4,2,1,1,4,1,1,1,0.7018,2,2,0.6216
12,162,4,2,2,1,6,1,0,2,0.648,1,1,0.8878
12,163,4,2,2,2,6,1,1,2,0.7076,2,2,0.5633
12,164,4,2,1,1,2,1,1,1,0.689,1,1,0.6088
12,165,4,2,1,1,2,2,1,1,1.0192,2,2,0.619
12,166,4,2,2,2,4,1,1,2,0.6976,2,2,0.8094
12,167,4,2,1,2,2,2,0,1,0.7167,2,2,0.5084
12,168,4,2,2,2,1,2,1,2,0.629,1,1,0.6768
12,169,4,2,2,2,4,2,1,2,0.8363,2,2,0.6281
12,170,4,2,2,2,3,1,1,2,0.6428,2,2,0.6265
12,171,4,2,2,1,5,2,0,2,0.7052,2,1,0.881
12,172,4,2,1,1,3,1,1,2,0.6727,1,1,0.5906
12,173,4,2,2,1,3,2,0,2,0.7045,1,1,0.5603
12,174,4,2,1,1,4,2,1,1,0.5815,2,2,0.6293
12,175,4,2,2,1,5,1,0,2,0.6961,2,2,0.8719
12,176,4,2,2,2,5,1,1,2,0.6917,2,2,0.7395
12,177,4,2,1,2,5,1,0,1,0.7644,1,1,0.8122
12,178,4,2,2,1,3,1,0,2,0.7195,1,1,0.5754
12,179,4,2,1,2,3,1,0,1,0.5612,2,2,0.609
12,180,4,2,2,2,1,1,1,2,0.6995,1,1,0.6192
12,181,4,2,2,2,5,2,1,2,0.7096,1,1,0.5014
12,182,4,2,1,2,1,1,0,1,0.7095,1,2,0.6932
12,183,4,2,2,1,2,2,0,2,0.6733,1,2,0.7851
12,184,4,2,2,2,6,2,1,2,0.6827,1,1,0.4745
12,185,4,2,2,1,2,1,0,2,0.7701,1,1,0.4979
12,186,4,2,2,2,2,2,1,2,0.6419,2,2,0.8177
12,187,4,2,1,1,3,2,1,1,0.8243,2,2,0.6801
12,188,4,2,1,1,6,2,1,1,0.7169,1,1,0.6367
12,189,4,2,2,2,3,2,1,2,0.7558,1,1,0.9955
12,190,4,2,2,1,4,2,0,2,0.7616,2,2,0.6174
12,191,4,2,2,1,1,1,0,2,0.6961,2,2,0.6158
12,192,4,2,1,1,1,2,1,1,0.7585,2,2,0.8063
13,1,1,1,1,2,4,1,0,1,0.6917,2,7,7
13,2,1,1,2,1,1,2,0,2,0.9686,2,7,7
13,3,1,1,2,2,3,2,1,2,0.6431,1,7,7
13,4,1,1,1,2,5,2,0,1,0.647,2,7,7
13,5,1,1,2,2,6,2,1,2,0.5634,2,7,7
13,6,1,1,1,2,2,1,0,1,0.7541,1,7,7
13,7,1,1,2,2,2,2,1,2,0.5647,1,7,7
13,8,1,1,2,2,5,2,1,2,0.5112,2,7,7
13,9,1,1,2,2,6,1,1,2,0.4526,2,7,7
13,10,1,1,2,2,5,1,1,2,0.4527,1,7,7
13,11,1,1,1,1,4,2,1,1,0.5169,2,7,7
13,12,1,1,1,1,3,2,1,1,0.5745,2,7,7
13,13,1,1,1,1,5,2,1,1,0.457,1,7,7
13,14,1,1,2,2,1,2,1,2,0.4572,2,7,7
13,15,1,1,1,2,1,1,0,1,0.7929,1,7,7
13,16,1,1,1,1,6,2,1,1,0.7079,1,7,7
13,17,1,1,1,2,4,2,0,1,0.5132,2,7,7
13,18,1,1,1,1,2,1,1,1,0.4546,2,7,7
13,19,1,1,1,1,3,1,1,1,0.4548,2,7,7
13,20,1,1,2,2,2,1,1,2,0.4432,1,7,7
13,21,1,1,2,1,4,1,0,2,0.5831,2,7,7
13,22,1,1,2,1,5,1,0,2,0.5819,1,7,7
13,23,1,1,1,2,2,2,0,1,0.6329,1,7,7
13,24,1,1,1,2,5,1,0,1,0.5088,2,7,7
13,25,1,1,2,1,2,2,0,1,0.5024,2,7,7
13,26,1,1,1,2,3,2,0,1,0.5438,2,7,7
13,27,1,1,2,2,4,1,1,2,0.5661,1,7,7
13,28,1,1,2,2,3,1,1,2,0.6288,1,7,7
13,29,1,1,1,1,4,1,1,1,0.4407,1,7,7
13,30,1,1,1,2,1,2,0,2,0.4409,1,7,7
13,31,1,1,1,1,1,1,1,1,0.6169,1,7,7
13,32,1,1,2,1,5,2,0,2,0.5804,1,7,7
13,33,1,1,2,2,1,1,1,2,0.5151,2,7,7
13,34,1,1,2,1,4,2,0,2,0.5845,1,7,7
13,35,1,1,1,1,6,1,1,1,0.5715,2,7,7
13,36,1,1,2,1,3,2,0,2,0.7269,1,7,7
13,37,1,1,2,2,4,2,1,2,0.7125,1,7,7
13,38,1,1,2,1,6,1,0,2,0.5179,1,7,7
13,39,1,1,1,1,1,2,1,1,0.5115,2,7,7
13,40,1,1,1,1,5,1,1,1,0.5168,1,7,7
13,41,1,1,1,2,3,1,0,1,0.6906,1,7,7
13,42,1,1,2,1,1,1,0,2,0.5364,2,7,7
13,43,1,1,1,2,6,1,0,1,0.6345,2,7,7
13,44,1,1,2,1,3,1,0,2,0.5743,2,7,7
13,45,1,1,1,1,2,2,1,1,0.8409,1,7,7
13,46,1,1,1,2,6,2,0,1,0.5808,1,7,7
13,47,1,1,2,1,6,2,0,2,0.5796,2,7,7
13,48,1,1,2,1,2,1,0,2,0.8226,2,7,7
13,49,2,2,1,1,4,1,1,1,0.6408,2,2,0.6886
13,50,2,2,1,2,3,2,0,1,0.6326,1,1,0.6804
13,51,2,2,1,2,1,2,0,1,0.6884,1,1,0.6722
13,52,2,2,2,1,1,1,0,2,0.7678,2,2,0.7515
13,53,2,2,1,1,1,1,1,1,0.6485,1,1,0.4403
13,54,2,2,1,2,5,2,0,1,0.6314,1,1,0.9352
13,55,2,2,2,1,4,1,0,2,0.6439,1,1,0.8197
13,56,2,2,2,2,2,1,1,2,0.5063,2,2,0.6821
13,57,2,2,1,2,1,1,0,2,0.5503,1,1,0.6616
13,58,2,2,1,2,4,2,0,1,0.5129,2,2,0.8167
13,59,2,2,1,2,6,2,0,1,0.6431,2,1,0.6909
13,60,2,2,2,2,3,2,1,2,0.6827,1,1,0.6665
13,61,2,2,2,2,5,2,1,2,0.6458,2,1,0.8856
13,62,2,2,1,2,5,1,0,1,0.7414,2,1,0.7251
13,63,2,2,2,1,6,2,0,1,1.0708,1,2,0.7166
13,64,2,2,1,1,2,2,1,1,0.6731,2,2,0.5929
13,65,2,2,2,1,4,2,0,2,0.712,1,1,0.6958
13,66,2,2,2,2,1,1,1,2,0.8201,2,2,0.6118
13,67,2,2,1,1,3,2,1,1,0.7662,1,1,0.5581
13,68,2,2,2,2,4,1,1,2,0.7713,1,1,0.563
13,69,2,2,2,1,2,1,0,2,0.7763,2,2,0.888
13,70,2,2,1,1,6,1,1,1,0.6438,1,1,0.6276
13,71,2,2,1,2,3,1,0,1,0.7585,2,2,0.6143
13,72,2,2,2,2,6,2,1,2,0.7569,2,2,0.6767
13,73,2,2,2,2,1,2,1,2,0.6325,1,2,0.7442
13,74,2,2,2,2,2,2,1,2,0.7412,1,1,0.597
13,75,2,2,2,1,2,2,0,2,0.9029,2,2,0.6307
13,76,2,2,2,1,5,1,0,2,0.7734,1,1,0.5011
13,77,2,2,1,1,5,2,1,1,0.7732,2,2,0.629
13,78,2,2,2,2,6,1,1,1,0.7481,2,1,1.1073
13,79,2,2,1,1,1,2,1,1,0.7683,2,2,0.688
13,80,2,2,1,2,2,2,0,1,0.7601,1,1,0.4878
13,81,2,2,1,2,6,1,0,1,0.8121,2,2,0.8599
13,82,2,2,2,1,1,2,0,2,0.8952,2,2,0.687
13,83,2,2,2,1,5,2,0,2,0.7708,2,1,0.6906
13,84,2,2,2,2,5,1,1,2,0.7464,2,2,0.6662
13,85,2,2,1,1,3,1,1,1,0.7735,1,1,0.7573
13,86,2,2,2,2,3,1,1,2,0.6947,1,1,0.6785
13,87,2,2,2,2,4,2,1,2,0.7623,2,2,0.6821
13,88,2,2,1,2,4,1,0,1,0.7541,2,1,0.6739
13,89,2,2,1,1,2,1,1,1,0.6775,2,2,0.6613
13,90,2,2,2,1,3,2,0,2,0.8966,2,1,0.7524
13,91,2,2,1,2,2,1,0,1,0.8656,1,1,0.7214
13,92,2,2,2,1,6,1,0,2,0.6419,1,1,0.6257
13,93,2,2,1,1,6,2,1,1,0.7565,1,1,0.5483
13,94,2,2,1,1,5,1,1,1,0.6336,1,1,0.4893
13,95,2,2,1,1,4,2,1,1,0.6334,1,1,0.6172
13,96,2,2,2,1,3,1,0,2,0.6605,1,1,0.4523
13,97,3,2,2,1,4,2,0,2,0.7142,2,2,0.634
13,98,3,2,2,1,2,1,0,2,0.8288,1,1,0.5566
13,99,3,2,2,1,1,2,0,2,0.7699,1,1,0.6256
13,100,3,2,2,2,3,1,1,2,0.6925,2,2,0.6123
13,101,3,2,1,2,6,2,0,1,0.8189,1,1,0.6107
13,102,3,2,2,1,5,1,0,2,0.6893,1,1,0.7371
13,103,3,2,1,1,1,2,1,1,0.7621,1,1,0.4898
13,104,3,2,2,1,2,2,0,2,0.7619,2,2,0.6817
13,105,3,2,1,1,1,1,1,1,0.6375,2,2,0.6853
13,106,3,2,1,1,5,1,1,1,0.7051,1,1,1.4568
13,107,3,2,1,1,3,1,1,1,0.6479,1,1,0.8236
13,108,3,2,2,2,1,2,1,2,0.6265,2,2,0.6102
13,109,3,2,1,1,6,2,1,1,0.7294,1,1,0.7132
13,110,3,2,2,1,3,2,0,2,0.6977,2,2,0.8094
13,111,3,2,1,1,4,2,1,1,0.6645,2,2,0.8403
13,112,3,2,1,2,6,1,0,1,0.7711,2,2,0.6269
13,113,3,2,2,1,6,1,0,1,0.7056,1,1,1.2281
13,114,3,2,2,1,5,2,0,2,0.6427,2,2,0.8824
13,115,3,2,1,1,3,2,1,1,0.7662,1,1,0.686
13,116,3,2,1,1,6,1,1,1,0.63,1,1,0.9338
13,117,3,2,1,2,4,2,0,1,0.683,2,2,0.9227
13,118,3,2,1,1,4,1,1,1,0.6955,1,1,1.1913
13,119,3,2,1,2,2,1,0,1,0.5653,2,2,0.5491
13,120,3,2,2,2,4,2,1,2,0.6984,2,2,0.6181
13,121,3,2,2,1,4,1,0,2,0.8248,1,1,0.6165
13,122,3,2,1,2,2,2,0,1,0.7592,2,2,0.679
13,123,3,2,2,2,6,2,1,2,0.7745,2,2,0.8223
13,124,3,2,2,1,1,1,0,2,0.6369,2,2,0.6207
13,125,3,2,1,2,5,2,0,1,0.6471,2,2,0.4389
13,126,3,2,1,2,1,2,0,1,0.6418,1,1,0.6255
13,127,3,2,2,1,6,2,0,1,0.6402,1,1,1.2334
13,128,3,2,2,2,4,1,1,2,0.6479,2,2,0.8236
13,129,3,2,2,2,5,1,1,2,0.4345,1,1,0.8023
13,130,3,2,1,2,3,2,0,1,0.7566,1,1,0.7404
13,131,3,2,1,2,3,1,0,1,0.7536,2,2,0.5454
13,132,3,2,1,2,4,1,0,2,0.6306,1,1,0.9155
13,133,3,2,1,1,2,2,1,1,0.764,1,1,0.5558
13,134,3,2,2,2,5,2,1,2,0.7742,2,2,0.63
13,135,3,2,1,1,2,1,1,1,0.6446,2,2,0.6284
13,136,3,2,2,2,2,2,1,2,0.707,2,2,0.5628
13,137,3,2,2,2,6,1,1,2,0.776,1,2,0.6958
13,138,3,2,2,2,3,2,1,2,0.7399,1,1,0.7876
13,139,3,2,2,2,1,1,1,2,0.6375,1,1,0.5573
13,140,3,2,2,1,3,1,0,2,0.8345,1,1,0.4344
13,141,3,2,1,2,5,1,0,1,0.6894,1,1,0.8012
13,142,3,2,1,2,1,1,0,1,0.7556,2,1,0.7394
13,143,3,2,2,2,2,1,1,2,0.5444,2,2,0.8482
13,144,3,2,1,1,5,2,1,1,0.6562,2,2,0.5759
13,145,4,1,2,2,1,2,1,2,1.0416,1,7,7
13,146,4,1,2,1,4,1,0,2,0.6977,2,7,7
13,147,4,1,2,1,6,2,0,2,0.6428,2,7,7
13,148,4,1,1,2,6,2,0,1,0.6468,1,7,7
13,149,4,1,1,1,2,2,1,1,0.5749,1,7,7
13,150,4,1,2,1,3,1,0,2,0.4575,2,7,7
13,151,4,1,2,1,5,1,0,2,0.5621,2,7,7
13,152,4,1,1,2,5,1,0,1,0.5086,2,7,7
13,153,4,1,1,2,3,2,0,1,0.5949,1,7,7
13,154,4,1,2,2,6,2,1,2,0.5702,1,7,7
13,155,4,1,1,1,4,2,1,1,0.7609,2,7,7
13,156,4,1,1,2,1,1,0,1,0.7634,2,7,7
13,157,4,1,2,2,5,1,1,2,0.4982,2,7,7
13,158,4,1,1,1,3,2,1,1,0.5675,1,7,7
13,159,4,1,2,2,4,2,1,2,0.467,2,7,7
13,160,4,1,1,1,2,1,1,1,0.5834,1,7,7
13,161,4,1,1,2,6,1,0,1,0.6461,2,7,7
13,162,4,1,1,1,6,1,1,1,0.5105,1,7,7
13,163,4,1,1,2,3,1,0,1,0.6253,2,7,7
13,164,4,1,2,2,2,2,1,2,0.641,1,7,7
13,165,4,1,1,1,5,2,1,1,0.6972,2,7,7
13,166,4,1,2,2,6,1,1,2,0.5665,2,7,7
13,167,4,1,2,2,3,2,1,2,0.5012,2,7,7
13,168,4,1,1,1,5,1,1,1,0.4713,2,7,7
13,169,4,1,2,1,1,1,0,2,0.512,1,7,7
13,170,4,1,2,1,1,2,0,2,0.4416,1,7,7
13,171,4,1,2,1,4,2,0,2,0.5175,1,7,7
13,172,4,1,1,2,2,1,0,1,0.5751,1,7,7
13,173,4,1,2,1,2,2,0,2,0.6378,1,7,7
13,174,4,1,1,1,6,2,1,2,0.5138,2,7,7
13,175,4,1,2,1,3,2,0,2,0.8752,2,7,7
13,176,4,1,1,2,4,1,0,1,0.632,1,7,7
13,177,4,1,2,1,2,1,0,2,0.6999,1,7,7
13,178,4,1,1,1,4,1,1,1,0.6333,2,7,7
13,179,4,1,1,2,5,2,0,1,0.5092,2,7,7
13,180,4,1,1,1,1,1,1,1,0.5668,1,7,7
13,181,4,1,1,2,1,2,0,1,0.5655,2,7,7
13,182,4,1,2,2,2,1,1,2,0.5761,2,7,7
13,183,4,1,2,1,5,2,0,2,0.7028,1,7,7
13,184,4,1,1,2,2,2,0,2,0.5839,2,7,7
13,185,4,1,2,2,4,1,1,2,0.6187,1,7,7
13,186,4,1,2,2,1,1,1,2,0.7102,2,7,7
13,187,4,1,1,1,3,1,1,1,0.6435,1,7,7
13,188,4,1,2,2,3,1,1,2,0.5886,2,7,7
13,189,4,1,1,1,1,2,1,1,0.6918,1,7,7
13,190,4,1,2,1,6,1,0,2,0.5089,1,7,7
13,191,4,1,2,2,5,2,1,2,0.5665,1,7,7
13,192,4,1,1,2,4,2,0,1,0.6293,1,7,7
14,1,1,2,2,2,6,1,1,2,1.0527,1,1,1.2925
14,2,1,2,2,1,6,1,0,2,1.6068,1,1,0.8866
14,3,1,2,2,2,4,2,1,2,1.0146,2,2,1.4464
14,4,1,2,1,2,3,1,0,7,7,1,1,1.4134
14,5,1,2,1,1,6,1,1,1,1.3438,1,1,0.7515
14,6,1,2,2,2,6,2,1,2,0.8405,2,1,0.8242
14,7,1,2,1,2,6,2,0,1,1.3789,2,2,0.7867
14,8,1,2,1,2,1,2,0,1,1.3523,1,2,1.3361
14,9,1,2,1,2,4,2,0,1,1.2568,2,2,0.7286
14,10,1,2,2,2,1,2,1,2,1.3413,1,1,0.6211
14,11,1,2,1,1,6,2,1,2,0.7755,2,1,1.1634
14,12,1,2,2,1,1,1,0,2,1.5049,1,1,0.6566
14,13,1,2,1,1,3,1,1,2,1.2877,2,2,0.9137
14,14,1,2,2,1,3,2,0,2,1.5419,2,2,1.2698
14,15,1,2,1,2,5,1,0,2,1.4692,2,2,0.907
14,16,1,2,2,2,5,2,1,2,1.0755,2,2,0.8672
14,17,1,2,1,2,2,2,0,1,1.4668,2,1,0.9386
14,18,1,2,1,2,2,1,0,1,1.6602,2,2,0.812
14,19,1,2,2,1,4,1,0,2,0.9988,2,2,0.6626
14,20,1,2,1,2,3,2,0,1,1.0142,1,1,0.742
14,21,1,2,2,1,5,2,0,1,1.0869,1,1,1.041
14,22,1,2,2,1,6,2,0,2,1.0918,2,2,0.7556
14,23,1,2,1,1,4,2,1,2,1.0939,1,1,0.7802
14,24,1,2,2,2,5,1,1,2,1.3981,2,1,0.7419
14,25,1,2,1,2,5,2,0,1,1.2391,1,1,0.9029
14,26,1,2,2,1,2,1,0,2,1.2751,1,2,1.1949
14,27,1,2,2,2,3,2,1,2,1.053,1,1,0.9728
14,28,1,2,2,1,4,2,0,2,1.0942,1,1,0.822
14,29,1,2,1,2,4,1,0,1,1.6606,1,1,0.8124
14,30,1,2,2,2,2,2,1,2,1.011,1,2,1.0588
14,31,1,2,2,1,1,2,0,2,1.3023,2,2,1.1581
14,32,1,2,1,1,1,2,1,1,1.3642,2,1,0.964
14,33,1,2,1,2,1,1,0,1,1.2377,1,1,0.7734
14,34,1,2,2,2,3,1,1,7,7,1,2,1.2949
14,35,1,2,1,1,2,2,1,1,0.9831,2,2,0.7109
14,36,1,2,2,2,4,1,1,2,0.9632,1,2,1.4589
14,37,1,2,1,1,1,1,1,1,1.1862,2,2,0.85
14,38,1,2,1,1,5,1,1,1,1.0773,2,2,0.9331
14,39,1,2,1,1,4,1,1,1,0.8507,2,1,0.9625
14,40,1,2,2,1,2,2,0,1,1.632,2,2,1.4927
14,41,1,2,1,1,5,2,1,1,1.4164,1,1,1.2722
14,42,1,2,2,2,1,1,1,2,1.0238,1,1,0.8795
14,43,1,2,1,2,6,1,0,1,1.735,1,1,0.8868
14,44,1,2,1,1,3,2,1,1,1.1429,2,2,0.6786
14,45,1,2,2,2,2,1,1,2,0.9545,2,2,0.8742
14,46,1,2,2,1,5,1,0,2,1.91,1,1,1.1258
14,47,1,2,2,1,3,1,0,2,1.2627,2,2,0.6064
14,48,1,2,1,1,2,1,1,1,1.4936,1,1,1.0294
14,49,2,1,1,1,5,2,1,1,1.2578,1,7,7
14,50,2,1,2,2,5,2,1,2,1.7901,1,7,7
14,51,2,1,1,2,1,2,0,1,1.2169,2,7,7
14,52,2,1,2,1,4,1,0,2,1.0283,2,7,7
14,53,2,1,1,2,3,2,0,1,1.0803,2,7,7
14,54,2,1,2,2,4,1,1,2,1.021,1,7,7
14,55,2,1,1,1,4,1,1,1,1.0847,1,7,7
14,56,2,1,1,1,3,2,1,1,0.7695,2,7,7
14,57,2,1,1,1,6,1,1,1,0.452,2,7,7
14,58,2,1,2,1,4,2,0,2,1.4004,2,7,7
14,59,2,1,2,2,4,2,1,2,0.6397,1,7,7
14,60,2,1,2,1,5,1,0,2,0.6317,1,7,7
14,61,2,1,2,2,5,1,1,2,0.5717,2,7,7
14,62,2,1,1,2,1,1,0,1,0.7624,1,7,7
14,63,2,1,2,2,1,1,1,2,0.7649,2,7,7
14,64,2,1,2,1,6,1,0,2,1.2795,2,7,7
14,65,2,1,2,2,2,1,1,2,0.6481,1,7,7
14,66,2,1,1,2,5,1,0,1,1.3442,2,7,7
14,67,2,1,2,2,1,2,1,2,0.7702,1,7,7
14,68,2,1,1,2,4,1,0,1,0.6969,1,7,7
14,69,2,1,2,1,2,2,0,2,1.3342,2,7,7
14,70,2,1,1,2,6,2,0,1,1.7843,1,7,7
14,71,2,1,2,1,1,2,0,2,0.763,1,7,7
14,72,2,1,2,1,5,2,0,2,0.8414,1,7,7
14,73,2,1,2,2,6,1,1,2,0.7732,2,7,7
14,74,2,1,2,1,6,2,0,2,0.6359,2,7,7
14,75,2,1,2,2,6,2,1,2,0.5119,1,7,7
14,76,2,1,2,1,1,1,0,2,0.8255,1,7,7
14,77,2,1,1,1,4,2,1,1,0.8854,2,7,7
14,78,2,1,2,2,3,2,1,2,0.8747,1,7,7
14,79,2,1,2,2,2,2,1,2,0.6316,2,7,7
14,80,2,1,1,2,2,2,0,1,0.9673,2,7,7
14,81,2,1,1,2,5,2,0,2,1.0897,1,7,7
14,82,2,1,2,1,3,2,0,2,1.4506,2,7,7
14,83,2,1,1,2,3,1,0,1,1.0826,1,7,7
14,84,2,1,2,1,3,1,0,2,0.7557,2,7,7
14,85,2,1,1,1,5,1,1,1,1.0142,1,7,7
14,86,2,1,1,2,6,1,0,1,0.7578,2,7,7
14,87,2,1,1,1,2,2,1,1,0.8243,1,7,7
14,88,2,1,2,1,2,1,0,2,0.8203,2,7,7
14,89,2,1,2,2,3,1,1,2,1.2237,1,7,7
14,90,2,1,1,1,6,2,1,1,0.6916,1,7,7
14,91,2,1,1,1,3,1,1,1,0.5726,1,7,7
14,92,2,1,1,2,4,2,0,1,0.9201,2,7,7
14,93,2,1,1,1,1,1,1,1,0.6821,2,7,7
14,94,2,1,1,2,2,1,0,1,0.6272,2,7,7
14,95,2,1,1,1,2,1,1,1,0.579,1,7,7
14,96,2,1,1,1,1,2,1,1,0.6417,2,7,7
14,97,3,1,2,1,5,1,0,2,1.0425,2,7,7
14,98,3,1,1,2,2,1,0,1,1.7344,2,7,7
14,99,3,1,2,2,6,2,1,2,0.9523,1,7,7
14,100,3,1,2,2,3,2,1,2,0.6908,2,7,7
14,101,3,1,1,1,4,1,1,1,0.6998,2,7,7
14,102,3,1,1,2,6,2,0,1,1.0695,1,7,7
14,103,3,1,1,2,5,1,0,1,0.9462,2,7,7
14,104,3,1,1,1,5,1,1,1,1.6043,1,7,7
14,105,3,1,2,1,2,1,0,2,1.0914,1,7,7
14,106,3,1,1,1,2,1,1,1,1.9282,2,7,7
14,107,3,1,2,2,5,1,1,2,0.9631,2,7,7
14,108,3,1,2,2,2,2,1,1,1.0855,2,7,7
14,109,3,1,2,2,1,2,1,2,0.9866,2,7,7
14,110,3,1,1,2,1,2,0,1,1.2136,1,7,7
14,111,3,1,1,1,6,2,1,1,1.0772,2,7,7
14,112,3,1,1,2,2,2,0,1,1.2858,1,7,7
14,113,3,1,2,1,1,1,0,2,1.1546,1,7,7
14,114,3,1,1,2,1,1,0,1,1.4728,1,7,7
14,115,3,1,1,1,5,2,1,1,0.9496,1,7,7
14,116,3,1,2,1,1,2,0,2,1.1478,2,7,7
14,117,3,1,2,2,4,2,1,2,1.5301,1,7,7
14,118,3,1,1,1,1,1,1,1,1.0643,2,7,7
14,119,3,1,2,2,5,2,1,2,0.9528,1,7,7
14,120,3,1,2,1,6,1,0,2,1.5233,1,7,7
14,121,3,1,2,1,3,2,0,2,1.3253,2,7,7
14,122,3,1,1,2,3,1,0,1,1.147,1,7,7
14,123,3,1,2,1,2,2,0,2,1.0172,2,7,7
14,124,3,1,1,2,6,1,0,1,1.3486,1,7,7
14,125,3,1,1,1,3,2,1,1,0.7106,1,7,7
14,126,3,1,2,1,4,1,0,2,1.2839,2,7,7
14,127,3,1,1,1,4,2,1,1,0.8968,2,7,7
14,128,3,1,2,1,4,2,0,2,1.2701,1,7,7
14,129,3,1,2,1,6,2,0,2,1.8311,2,7,7
14,130,3,1,2,2,2,1,1,2,1.1469,2,7,7
14,131,3,1,1,2,4,2,0,1,0.7781,1,7,7
